<?xml version="1.0" encoding="UTF-8"?>

<Bundle xmlns="http://hl7.org/fhir">
  <id value="Example-Smith-Johnson-Bundle"/>
  <type value="document"/>
  <timestamp value="2024-05-10T14:25:34.001-05:00"/>
  <entry>
    <fullUrl value="http://www.example.org/fhir/Composition/BSJ-TOCComposition"/>
    <resource>
      <Composition>
        <id value="BSJ-TOCComposition"/>
        <meta>
          <profile value="http://hl7.org/fhir/us/pacio-toc/StructureDefinition/TOC-Composition"/>
        </meta>
        <language value="en-US"/>
        <text>
          <status value="generated"/><div xmlns="http://www.w3.org/1999/xhtml" xml:lang="en-US" lang="en-US"><a name="Composition_BSJ-TOCComposition"> </a><p><b>Generated Narrative: Composition</b><a name="BSJ-TOCComposition"> </a><a name="hcBSJ-TOCComposition"> </a></p><div style="display: inline-block; background-color: #d9e0e7; padding: 6px; margin: 4px; border: 1px solid #8da1b4; border-radius: 5px; line-height: 60%"><p style="margin-bottom: 0px">ResourceComposition &quot;BSJ-TOCComposition&quot;  (Language &quot;en-US&quot;) </p><p style="margin-bottom: 0px">Profile: <a href="StructureDefinition-TOC-Composition.html">Transition of Care Composition</a></p></div><p><b>identifier</b>: <code>urn:oid:2.16.840.1.113883.4.823.1.7125</code>/20130607100315-CCDA-CCD</p><p><b>status</b>: final</p><p><b>type</b>: Discharge summary - recommended C-CDA R2.1 sections <span style="background: LightGoldenRodYellow; margin: 4px; border: 1px solid khaki"> (<a href="https://loinc.org/">LOINC</a>#81218-0)</span></p><p><b>date</b>: 2024-05-10 08:49:58-0400</p><p><b>author</b>: See on this page: Practitioner/Example-JenCadbury</p><p><b>title</b>: Transitions of Care Document for Betsy Smith-Johnson</p><p><b>custodian</b>: See on this page: Organization/org-SNF-Happy-Nursing-Facility</p></div>
        </text>
        <identifier>
          <system value="urn:oid:2.16.840.1.113883.4.823.1.7125"/>
          <value value="20130607100315-CCDA-CCD"/>
        </identifier>
        <status value="final"/>
        <type>
          <coding>
            <system value="http://loinc.org"/>
            <code value="81218-0"/>
            <display value="Discharge summary - recommended C-CDA R2.1 sections"/>
          </coding>
        </type>
        <subject>
          <reference value="Patient/Example-Smith-Johnson-Patient1"/>
        </subject>
        <date value="2024-05-10T08:49:58.313-04:00"/>
        <author>
          <reference value="Practitioner/Example-JenCadbury"/>
        </author>
        <title value="Transitions of Care Document for Betsy Smith-Johnson"/>
        <custodian>
          <reference value="Organization/org-SNF-Happy-Nursing-Facility"/>
        </custodian>
        <section>
          <text>
            <status value="additional"/><div xmlns="http://www.w3.org/1999/xhtml">Information sections for the transitions of care for Betsy Smith-Johnson</div>
          </text>
        </section>
        <section>
          <title value="List of allergies for Betsy Smith-Johnson"/>
          <code>
            <coding>
              <system value="http://loinc.org"/>
              <code value="48765-2"/>
            </coding>
          </code>
          <text>
            <status value="additional"/><div xmlns="http://www.w3.org/1999/xhtml">Allergies for Betsy Smith-Johnson</div>
          </text>
          <entry>
            <reference value="AllergyIntolerance/BSJ-AllergyACE"/>
          </entry>
        </section>
        <section>
          <title value="Functional status of Betsy Smith-Johnson"/>
          <code>
            <coding>
              <system value="http://loinc.org"/>
              <code value="54522-8"/>
            </coding>
          </code>
          <text>
            <status value="additional"/><div xmlns="http://www.w3.org/1999/xhtml">Functional status of Betsy Smith-Johnson</div>
          </text>
          <entry>
            <reference value="Observation/BSJ-MDS-Activities-PT1"/>
          </entry>
          <entry>
            <reference value="Observation/BSJ-MDS-Doffing1"/>
          </entry>
          <entry>
            <reference value="Observation/BSJ-MDS-Donning1"/>
          </entry>
          <entry>
            <reference value="Observation/BSJ-MDS-Mobility-PT1"/>
          </entry>
          <entry>
            <reference value="Observation/BSJ-MDS-ShortWalk1"/>
          </entry>
          <entry>
            <reference value="Observation/BSJ-MDS-SitStand1"/>
          </entry>
          <entry>
            <reference value="Observation/BSJ-MDS-SitUp1"/>
          </entry>
        </section>
        <section>
          <title value="List of medications prescribed for Betsy Smith-Johnson"/>
          <code>
            <coding>
              <system value="http://loinc.org"/>
              <code value="52471-0"/>
            </coding>
          </code>
          <text>
            <status value="additional"/><div xmlns="http://www.w3.org/1999/xhtml">List of medications prescribed for Betsy Smith-Johnson</div>
          </text>
        </section>
        <section>
          <title value="Discharge care plan for Betsy Smith-Johnson"/>
          <code>
            <coding>
              <system value="http://loinc.org"/>
              <code value="74449-0"/>
            </coding>
          </code>
          <text>
            <status value="additional"/><div xmlns="http://www.w3.org/1999/xhtml">Discharge care plan for Betsy Smith-Johnson</div>
          </text>
          <entry>
            <reference value="CarePlan/BSJ-SNFDischargeCarePlan"/>
          </entry>
        </section>
        <section>
          <title value="List of problem conditions and observations for Betsy Smith-Johnson"/>
          <code>
            <coding>
              <system value="http://loinc.org"/>
              <code value="18776-5"/>
            </coding>
          </code>
          <text>
            <status value="additional"/><div xmlns="http://www.w3.org/1999/xhtml">List of problem conditions and observations for Betsy Smith-Johnson</div>
          </text>
          <entry>
            <reference value="Condition/BSJ-AnemiaDiagnosis"/>
          </entry>
          <entry>
            <reference value="Condition/BSJ-Constipation"/>
          </entry>
          <entry>
            <reference value="Condition/BSJ-DepressionDiagnosis"/>
          </entry>
          <entry>
            <reference value="Condition/BSJ-DiabetesDiagnosis"/>
          </entry>
          <entry>
            <reference value="Condition/BSJ-DressingConcern"/>
          </entry>
          <entry>
            <reference value="Condition/BSJ-HeartDiseaseDiagnosis"/>
          </entry>
          <entry>
            <reference value="Condition/BSJ-HemiparesisDiagnosis"/>
          </entry>
          <entry>
            <reference value="Condition/BSJ-Hyperlipidemia"/>
          </entry>
          <entry>
            <reference value="Condition/BSJ-HypertensionDiagnosis"/>
          </entry>
          <entry>
            <reference value="Condition/BSJ-KidneyDisease"/>
          </entry>
          <entry>
            <reference value="Condition/BSJ-NauseaAndVomiting"/>
          </entry>
          <entry>
            <reference value="Condition/BSJ-Neuropathy"/>
          </entry>
          <entry>
            <reference value="Condition/BSJ-StrokeDiagnosis"/>
          </entry>
          <entry>
            <reference value="Condition/BSJ-UndressingConcern"/>
          </entry>
          <entry>
            <reference value="Condition/OT-ProblemList-Decondition"/>
          </entry>
          <entry>
            <reference value="Condition/OT-ProblemList-RightWeak"/>
          </entry>
        </section>
        <section>
          <title value="List of test results for Betsy Smith-Johnson"/>
          <code>
            <coding>
              <system value="http://loinc.org"/>
              <code value="19146-0"/>
            </coding>
          </code>
          <text>
            <status value="additional"/><div xmlns="http://www.w3.org/1999/xhtml">List of test results for Betsy Smith-Johnson</div>
          </text>
        </section>
      </Composition>
    </resource>
  </entry>
  <entry>
    <fullUrl value="http://www.example.org/fhir/Patient/Example-Smith-Johnson-Patient1"/>
    <resource>
      <Patient>
        <id value="Example-Smith-Johnson-Patient1"/>
        <meta>
          <lastUpdated value="2021-03-29T14:25:34.001-05:00"/>
          <profile value="http://hl7.org/fhir/us/core/StructureDefinition/us-core-patient"/>
        </meta>
        <language value="en-US"/>
        <text>
          <status value="extensions"/><div xmlns="http://www.w3.org/1999/xhtml" xml:lang="en-US" lang="en-US"><a name="Patient_Example-Smith-Johnson-Patient1"> </a><p><b>Generated Narrative: Patient</b><a name="Example-Smith-Johnson-Patient1"> </a><a name="hcExample-Smith-Johnson-Patient1"> </a></p><div style="display: inline-block; background-color: #d9e0e7; padding: 6px; margin: 4px; border: 1px solid #8da1b4; border-radius: 5px; line-height: 60%"><p style="margin-bottom: 0px">ResourcePatient &quot;Example-Smith-Johnson-Patient1&quot; Updated &quot;2021-03-29 14:25:34-0500&quot;  (Language &quot;en-US&quot;) </p><p style="margin-bottom: 0px">Profile: <a href="http://hl7.org/fhir/us/core/STU6.1/StructureDefinition-us-core-patient.html">US Core Patient Profile</a></p></div><blockquote><p><b>US Core Race Extension</b></p><blockquote><p><b>url</b></p><code>ombCategory</code></blockquote><p><b>value</b>: White (Details: Race &amp; Ethnicity - CDC code 2106-3 = 'White', stated as 'White')</p><blockquote><p><b>url</b></p><code>text</code></blockquote><p><b>value</b>: White</p></blockquote><p><b>identifier</b>: Medical Record Number/1032702 (use: usual), <a href="http://terminology.hl7.org/5.0.0/NamingSystem-medicareHIC.html" title="Medicare Health Insurance Claim # (HIC) is a unique identifier of a beneficiary used for Medicare entitlement and billing purposes. Medicare Numbers (HIC or HICN) are represented without any spaces or dashes.">MedicareHIC</a>/10A3D58WH1600</p><p><b>active</b>: true</p><p><b>name</b>: Smith-Johnson, Betsy</p><p><b>telecom</b>: ph: 555-555-5555(HOME), ph: (410) 444-5555</p><p><b>gender</b>: female</p><p><b>birthDate</b>: 1958-11-01</p><p><b>address</b>: 111 Maple Ct, Grand Rapids, MI 49503</p><p><b>maritalStatus</b>: unknown <span style="background: LightGoldenRodYellow; margin: 4px; border: 1px solid khaki"> (<a href="http://terminology.hl7.org/5.4.0/CodeSystem-v3-NullFlavor.html">NullFlavor</a>#UNK)</span></p><blockquote><p><b>contact</b></p><p><b>relationship</b>: son <span style="background: LightGoldenRodYellow; margin: 4px; border: 1px solid khaki"> (<a href="http://terminology.hl7.org/5.4.0/CodeSystem-v3-RoleCode.html">RoleCode</a>#SONC)</span></p><p><b>name</b>: Charles Johnson</p><p><b>telecom</b>: ph: (210) 222-3333</p><p><b>address</b>: 111 Maple Ct, Grand Rapids, MI 49503</p></blockquote><blockquote><p><b>contact</b></p><p><b>relationship</b>: daughter <span style="background: LightGoldenRodYellow; margin: 4px; border: 1px solid khaki"> (<a href="http://terminology.hl7.org/5.4.0/CodeSystem-v3-RoleCode.html">RoleCode</a>#DAUC)</span></p><p><b>name</b>: Debra Johnson</p><p><b>telecom</b>: ph: (410) 444-5555</p><p><b>address</b>: 333 W. Camden St., Baltimore, MD 21201</p></blockquote><h3>Communications</h3><table class="grid"><tr><td style="display: none">-</td><td><b>Language</b></td><td><b>Preferred</b></td></tr><tr><td style="display: none">*</td><td>English <span style="background: LightGoldenRodYellow; margin: 4px; border: 1px solid khaki"> (<a href="http://terminology.hl7.org/5.0.0/CodeSystem-v3-ietf3066.html">Tags for the Identification of Languages</a>#en)</span></td><td>true</td></tr></table></div>
        </text>
        <extension url="http://hl7.org/fhir/us/core/StructureDefinition/us-core-race">
          <extension url="ombCategory">
            <valueCoding>
              <system value="urn:oid:2.16.840.1.113883.6.238"/>
              <code value="2106-3"/>
              <display value="White"/>
            </valueCoding>
          </extension>
          <extension url="text">
            <valueString value="White"/>
          </extension>
        </extension>
        <identifier>
          <use value="usual"/>
          <type>
            <coding>
              <system value="http://terminology.hl7.org/CodeSystem/v2-0203"/>
              <code value="MR"/>
              <display value="Medical Record Number"/>
            </coding>
            <text value="Medical Record Number"/>
          </type>
          <system value="http://hospital.smarthealthit.org"/>
          <value value="1032702"/>
        </identifier>
        <identifier>
          <system value="http://hl7.org/fhir/sid/us-medicare"/>
          <value value="10A3D58WH1600"/>
        </identifier>
        <active value="true"/>
        <name>
          <use value="usual"/>
          <text value="Smith-Johnson, Betsy"/>
          <family value="Smith-Johnson"/>
          <given value="Betsy"/>
        </name>
        <telecom>
          <system value="phone"/>
          <value value="555-555-5555"/>
          <use value="home"/>
        </telecom>
        <telecom>
          <system value="phone"/>
          <value value="(410) 444-5555"/>
        </telecom>
        <gender value="female"/>
        <birthDate value="1958-11-01"/>
        <address>
          <text value="111 Maple Ct, Grand Rapids, MI 49503"/>
          <line value="111 Maple Ct"/>
          <city value="Grand Rapids"/>
          <state value="MI"/>
          <postalCode value="49503"/>
          <country value="US"/>
          <period>
            <start value="2016-12-06"/>
          </period>
        </address>
        <maritalStatus>
          <coding>
            <system value="http://terminology.hl7.org/CodeSystem/v3-NullFlavor"/>
            <code value="UNK"/>
          </coding>
        </maritalStatus>
        <contact>
          <relationship>
            <coding>
              <system value="http://terminology.hl7.org/CodeSystem/v3-RoleCode"/>
              <code value="SONC"/>
            </coding>
          </relationship>
          <name>
            <text value="Charles Johnson"/>
          </name>
          <telecom>
            <system value="phone"/>
            <value value="(210) 222-3333"/>
          </telecom>
          <address>
            <text value="111 Maple Ct, Grand Rapids, MI 49503"/>
          </address>
        </contact>
        <contact>
          <relationship>
            <coding>
              <system value="http://terminology.hl7.org/CodeSystem/v3-RoleCode"/>
              <code value="DAUC"/>
            </coding>
          </relationship>
          <name>
            <text value="Debra Johnson"/>
          </name>
          <telecom>
            <system value="phone"/>
            <value value="(410) 444-5555"/>
          </telecom>
          <address>
            <text value="333 W. Camden St., Baltimore, MD 21201"/>
          </address>
        </contact>
        <communication>
          <language>
            <coding>
              <system value="urn:ietf:bcp:47"/>
              <code value="en"/>
              <display value="English"/>
            </coding>
          </language>
          <preferred value="true"/>
        </communication>
      </Patient>
    </resource>
  </entry>
  <entry>
    <fullUrl value="http://www.example.org/fhir/AllergyIntolerance/BSJ-AllergyACE"/>
    <resource>
      <AllergyIntolerance>
        <id value="BSJ-AllergyACE"/>
        <meta>
          <profile value="http://hl7.org/fhir/us/core/StructureDefinition/us-core-allergyintolerance"/>
        </meta>
        <text>
          <status value="generated"/><div xmlns="http://www.w3.org/1999/xhtml"><a name="AllergyIntolerance_BSJ-AllergyACE"> </a><p><b>Generated Narrative: AllergyIntolerance</b><a name="BSJ-AllergyACE"> </a><a name="hcBSJ-AllergyACE"> </a></p><div style="display: inline-block; background-color: #d9e0e7; padding: 6px; margin: 4px; border: 1px solid #8da1b4; border-radius: 5px; line-height: 60%"><p style="margin-bottom: 0px">ResourceAllergyIntolerance &quot;BSJ-AllergyACE&quot; </p><p style="margin-bottom: 0px">Profile: <a href="http://hl7.org/fhir/us/core/STU6.1/StructureDefinition-us-core-allergyintolerance.html">US Core AllergyIntolerance Profile</a></p></div><p><b>clinicalStatus</b>: Active <span style="background: LightGoldenRodYellow; margin: 4px; border: 1px solid khaki"> (<a href="http://terminology.hl7.org/5.4.0/CodeSystem-allergyintolerance-clinical.html">AllergyIntolerance Clinical Status Codes</a>#active)</span></p><p><b>verificationStatus</b>: Confirmed <span style="background: LightGoldenRodYellow; margin: 4px; border: 1px solid khaki"> (<a href="http://terminology.hl7.org/5.4.0/CodeSystem-allergyintolerance-verification.html">AllergyIntolerance Verification Status</a>#confirmed)</span></p><p><b>category</b>: medication</p><p><b>criticality</b>: high</p><p><b>code</b>: Substance with angiotensin-converting enzyme inhibitor mechanism of action (substance) <span style="background: LightGoldenRodYellow; margin: 4px; border: 1px solid khaki"> (<a href="https://browser.ihtsdotools.org/">SNOWMED CT</a>#372733002)</span></p><p><b>patient</b>: See on this page: Patient/Example-Smith-Johnson-Patient1</p><p><b>asserter</b>: See on this page: Patient/Example-Smith-Johnson-Patient1</p><p><b>lastOccurrence</b>: 2011-10</p><h3>Reactions</h3><table class="grid"><tr><td style="display: none">-</td><td><b>Substance</b></td><td><b>Manifestation</b></td></tr><tr><td style="display: none">*</td><td>captopril 12.5 MG Oral Tablet <span style="background: LightGoldenRodYellow; margin: 4px; border: 1px solid khaki"> (<a href="http://terminology.hl7.org/5.0.0/CodeSystem-v3-rxNorm.html">RxNorm</a>#308963)</span></td><td>Hyperkalemia caused by angiotensin-converting enzyme inhibitor (disorder) <span style="background: LightGoldenRodYellow; margin: 4px; border: 1px solid khaki"> (<a href="https://browser.ihtsdotools.org/">SNOWMED CT</a>#427195008)</span></td></tr></table></div>
        </text>
        <clinicalStatus>
          <coding>
            <system value="http://terminology.hl7.org/CodeSystem/allergyintolerance-clinical"/>
            <code value="active"/>
          </coding>
        </clinicalStatus>
        <verificationStatus>
          <coding>
            <system value="http://terminology.hl7.org/CodeSystem/allergyintolerance-verification"/>
            <code value="confirmed"/>
          </coding>
        </verificationStatus>
        <category value="medication"/>
        <criticality value="high"/>
        <code>
          <coding>
            <system value="http://snomed.info/sct"/>
            <code value="372733002"/>
            <display value="Substance with angiotensin-converting enzyme inhibitor mechanism of action (substance)"/>
          </coding>
        </code>
        <patient>
          <reference value="Patient/Example-Smith-Johnson-Patient1"/>
        </patient>
        <asserter>
          <reference value="Patient/Example-Smith-Johnson-Patient1"/>
        </asserter>
        <lastOccurrence value="2011-10"/>
        <reaction>
          <substance>
            <coding>
              <system value="http://www.nlm.nih.gov/research/umls/rxnorm"/>
              <code value="308963"/>
              <display value="captopril 12.5 MG Oral Tablet"/>
            </coding>
          </substance>
          <manifestation>
            <coding>
              <system value="http://snomed.info/sct"/>
              <code value="427195008"/>
              <display value="Hyperkalemia caused by angiotensin-converting enzyme inhibitor (disorder)"/>
            </coding>
          </manifestation>
        </reaction>
      </AllergyIntolerance>
    </resource>
  </entry>
  <entry>
    <fullUrl value="http://www.example.org/fhir/Condition/BSJ-AnemiaDiagnosis"/>
    <resource>
      <Condition>
        <id value="BSJ-AnemiaDiagnosis"/>
        <meta>
          <profile value="http://hl7.org/fhir/us/core/StructureDefinition/us-core-condition-encounter-diagnosis"/>
        </meta>
        <text>
          <status value="extensions"/><div xmlns="http://www.w3.org/1999/xhtml"><a name="Condition_BSJ-AnemiaDiagnosis"> </a><p><b>Generated Narrative: Condition</b><a name="BSJ-AnemiaDiagnosis"> </a><a name="hcBSJ-AnemiaDiagnosis"> </a></p><div style="display: inline-block; background-color: #d9e0e7; padding: 6px; margin: 4px; border: 1px solid #8da1b4; border-radius: 5px; line-height: 60%"><p style="margin-bottom: 0px">ResourceCondition &quot;BSJ-AnemiaDiagnosis&quot; </p><p style="margin-bottom: 0px">Profile: <a href="http://hl7.org/fhir/us/core/STU6.1/StructureDefinition-us-core-condition-encounter-diagnosis.html">US Core Condition Encounter Diagnosis Profile</a></p></div><p><b>Condition Asserted Date</b>: 2024-04-23 13:15:00-0400</p><p><b>clinicalStatus</b>: Active <span style="background: LightGoldenRodYellow; margin: 4px; border: 1px solid khaki"> (<a href="http://terminology.hl7.org/5.4.0/CodeSystem-condition-clinical.html">Condition Clinical Status Codes</a>#active)</span></p><p><b>verificationStatus</b>: Confirmed <span style="background: LightGoldenRodYellow; margin: 4px; border: 1px solid khaki"> (<a href="http://terminology.hl7.org/5.4.0/CodeSystem-condition-ver-status.html">ConditionVerificationStatus</a>#confirmed)</span></p><p><b>category</b>: Functions related to the digestive system, other specified and unspecified <span style="background: LightGoldenRodYellow; margin: 4px; border: 1px solid khaki"> (<a href="http://terminology.hl7.org/5.0.0/CodeSystem-ICF.html">International Classification of Functioning, Disability and Health</a>#b539)</span>, Encounter Diagnosis <span style="background: LightGoldenRodYellow; margin: 4px; border: 1px solid khaki"> (<a href="http://hl7.org/fhir/us/core/STU6.1/CodeSystem-condition-category.html">US Core Condition Category Extension Codes</a>#encounter-diagnosis)</span>, Encounter Diagnosis <span style="background: LightGoldenRodYellow; margin: 4px; border: 1px solid khaki"> (<a href="http://terminology.hl7.org/5.4.0/CodeSystem-condition-category.html">Condition Category Codes</a>#encounter-diagnosis)</span></p><p><b>code</b>: Anemia co-occurrent and due to chronic kidney disease stage 3 (disorder) <span style="background: LightGoldenRodYellow; margin: 4px; border: 1px solid khaki"> (<a href="https://browser.ihtsdotools.org/">SNOWMED CT</a>#691421000119108)</span></p><p><b>bodySite</b>: Structure of cardiovascular system (body structure) <span style="background: LightGoldenRodYellow; margin: 4px; border: 1px solid khaki"> (<a href="https://browser.ihtsdotools.org/">SNOWMED CT</a>#113257007)</span></p><p><b>subject</b>: See on this page: Patient/Example-Smith-Johnson-Patient1</p><p><b>recordedDate</b>: 2024-04-23 13:15:00-0400</p><p><b>note</b>: See lab</p></div>
        </text>
        <extension url="http://hl7.org/fhir/StructureDefinition/condition-assertedDate">
          <valueDateTime value="2024-04-23T13:15:00-04:00"/>
        </extension>
        <clinicalStatus>
          <coding>
            <system value="http://terminology.hl7.org/CodeSystem/condition-clinical"/>
            <code value="active"/>
          </coding>
        </clinicalStatus>
        <verificationStatus>
          <coding>
            <system value="http://terminology.hl7.org/CodeSystem/condition-ver-status"/>
            <code value="confirmed"/>
          </coding>
        </verificationStatus>
        <category>
          <coding>
            <system value="http://hl7.org/fhir/sid/icf"/>
            <code value="b539"/>
            <display value="Functions related to the digestive system, other specified and unspecified"/>
          </coding>
        </category>
        <category>
          <coding>
            <system value="http://hl7.org/fhir/us/core/CodeSystem/condition-category"/>
            <code value="encounter-diagnosis"/>
            <display value="Encounter Diagnosis"/>
          </coding>
        </category>
        <category>
          <coding>
            <system value="http://terminology.hl7.org/CodeSystem/condition-category"/>
            <code value="encounter-diagnosis"/>
          </coding>
        </category>
        <code>
          <coding>
            <system value="http://snomed.info/sct"/>
            <code value="691421000119108"/>
            <display value="Anemia co-occurrent and due to chronic kidney disease stage 3 (disorder)"/>
          </coding>
        </code>
        <bodySite>
          <coding>
            <system value="http://snomed.info/sct"/>
            <code value="113257007"/>
            <display value="Structure of cardiovascular system (body structure)"/>
          </coding>
        </bodySite>
        <subject>
          <reference value="Patient/Example-Smith-Johnson-Patient1"/>
        </subject>
        <recordedDate value="2024-04-23T13:15:00-04:00"/>
        <note>
          <text value="See lab"/>
        </note>
      </Condition>
    </resource>
  </entry>
  <entry>
    <fullUrl value="http://www.example.org/fhir/Condition/BSJ-Constipation"/>
    <resource>
      <Condition>
        <id value="BSJ-Constipation"/>
        <meta>
          <profile value="http://hl7.org/fhir/us/core/StructureDefinition/us-core-condition-encounter-diagnosis"/>
        </meta>
        <text>
          <status value="extensions"/><div xmlns="http://www.w3.org/1999/xhtml"><a name="Condition_BSJ-Constipation"> </a><p><b>Generated Narrative: Condition</b><a name="BSJ-Constipation"> </a><a name="hcBSJ-Constipation"> </a></p><div style="display: inline-block; background-color: #d9e0e7; padding: 6px; margin: 4px; border: 1px solid #8da1b4; border-radius: 5px; line-height: 60%"><p style="margin-bottom: 0px">ResourceCondition &quot;BSJ-Constipation&quot; </p><p style="margin-bottom: 0px">Profile: <a href="http://hl7.org/fhir/us/core/STU6.1/StructureDefinition-us-core-condition-encounter-diagnosis.html">US Core Condition Encounter Diagnosis Profile</a></p></div><p><b>Condition Asserted Date</b>: 2020-11</p><p><b>clinicalStatus</b>: Active <span style="background: LightGoldenRodYellow; margin: 4px; border: 1px solid khaki"> (<a href="http://terminology.hl7.org/5.4.0/CodeSystem-condition-clinical.html">Condition Clinical Status Codes</a>#active)</span></p><p><b>verificationStatus</b>: Confirmed <span style="background: LightGoldenRodYellow; margin: 4px; border: 1px solid khaki"> (<a href="http://terminology.hl7.org/5.4.0/CodeSystem-condition-ver-status.html">ConditionVerificationStatus</a>#confirmed)</span></p><p><b>category</b>: Frequency of defecation <span style="background: LightGoldenRodYellow; margin: 4px; border: 1px solid khaki"> (<a href="http://terminology.hl7.org/5.0.0/CodeSystem-ICF.html">International Classification of Functioning, Disability and Health</a>#b5252)</span>, Encounter Diagnosis <span style="background: LightGoldenRodYellow; margin: 4px; border: 1px solid khaki"> (<a href="http://hl7.org/fhir/us/core/STU6.1/CodeSystem-condition-category.html">US Core Condition Category Extension Codes</a>#encounter-diagnosis)</span>, Encounter Diagnosis <span style="background: LightGoldenRodYellow; margin: 4px; border: 1px solid khaki"> (<a href="http://terminology.hl7.org/5.4.0/CodeSystem-condition-category.html">Condition Category Codes</a>#encounter-diagnosis)</span></p><p><b>code</b>: Drug-induced constipation (disorder) <span style="background: LightGoldenRodYellow; margin: 4px; border: 1px solid khaki"> (<a href="https://browser.ihtsdotools.org/">SNOWMED CT</a>#21782001)</span></p><p><b>bodySite</b>: Colon structure (body structure) <span style="background: LightGoldenRodYellow; margin: 4px; border: 1px solid khaki"> (<a href="https://browser.ihtsdotools.org/">SNOWMED CT</a>#71854001)</span></p><p><b>subject</b>: See on this page: Patient/Example-Smith-Johnson-Patient1</p><p><b>asserter</b>: See on this page: PractitionerRole/Role-IMMD-AnitaChu</p></div>
        </text>
        <extension url="http://hl7.org/fhir/StructureDefinition/condition-assertedDate">
          <valueDateTime value="2020-11"/>
        </extension>
        <clinicalStatus>
          <coding>
            <system value="http://terminology.hl7.org/CodeSystem/condition-clinical"/>
            <code value="active"/>
          </coding>
        </clinicalStatus>
        <verificationStatus>
          <coding>
            <system value="http://terminology.hl7.org/CodeSystem/condition-ver-status"/>
            <code value="confirmed"/>
          </coding>
        </verificationStatus>
        <category>
          <coding>
            <system value="http://hl7.org/fhir/sid/icf"/>
            <code value="b5252"/>
            <display value="Frequency of defecation"/>
          </coding>
        </category>
        <category>
          <coding>
            <system value="http://hl7.org/fhir/us/core/CodeSystem/condition-category"/>
            <code value="encounter-diagnosis"/>
            <display value="Encounter Diagnosis"/>
          </coding>
        </category>
        <category>
          <coding>
            <system value="http://terminology.hl7.org/CodeSystem/condition-category"/>
            <code value="encounter-diagnosis"/>
          </coding>
        </category>
        <code>
          <coding>
            <system value="http://snomed.info/sct"/>
            <code value="21782001"/>
            <display value="Drug-induced constipation (disorder)"/>
          </coding>
        </code>
        <bodySite>
          <coding>
            <system value="http://snomed.info/sct"/>
            <code value="71854001"/>
            <display value="Colon structure (body structure)"/>
          </coding>
        </bodySite>
        <subject>
          <reference value="Patient/Example-Smith-Johnson-Patient1"/>
        </subject>
        <asserter>
          <reference value="PractitionerRole/Role-IMMD-AnitaChu"/>
        </asserter>
      </Condition>
    </resource>
  </entry>
  <entry>
    <fullUrl value="http://www.example.org/fhir/Condition/BSJ-DepressionDiagnosis"/>
    <resource>
      <Condition>
        <id value="BSJ-DepressionDiagnosis"/>
        <meta>
          <profile value="http://hl7.org/fhir/us/core/StructureDefinition/us-core-condition-encounter-diagnosis"/>
        </meta>
        <text>
          <status value="extensions"/><div xmlns="http://www.w3.org/1999/xhtml"><a name="Condition_BSJ-DepressionDiagnosis"> </a><p><b>Generated Narrative: Condition</b><a name="BSJ-DepressionDiagnosis"> </a><a name="hcBSJ-DepressionDiagnosis"> </a></p><div style="display: inline-block; background-color: #d9e0e7; padding: 6px; margin: 4px; border: 1px solid #8da1b4; border-radius: 5px; line-height: 60%"><p style="margin-bottom: 0px">ResourceCondition &quot;BSJ-DepressionDiagnosis&quot; </p><p style="margin-bottom: 0px">Profile: <a href="http://hl7.org/fhir/us/core/STU6.1/StructureDefinition-us-core-condition-encounter-diagnosis.html">US Core Condition Encounter Diagnosis Profile</a></p></div><p><b>Condition Asserted Date</b>: 2005-02</p><p><b>clinicalStatus</b>: Active <span style="background: LightGoldenRodYellow; margin: 4px; border: 1px solid khaki"> (<a href="http://terminology.hl7.org/5.4.0/CodeSystem-condition-clinical.html">Condition Clinical Status Codes</a>#active)</span></p><p><b>verificationStatus</b>: Confirmed <span style="background: LightGoldenRodYellow; margin: 4px; border: 1px solid khaki"> (<a href="http://terminology.hl7.org/5.4.0/CodeSystem-condition-ver-status.html">ConditionVerificationStatus</a>#confirmed)</span></p><p><b>category</b>: Emotional functions <span style="background: LightGoldenRodYellow; margin: 4px; border: 1px solid khaki"> (<a href="http://terminology.hl7.org/5.0.0/CodeSystem-ICF.html">International Classification of Functioning, Disability and Health</a>#b152)</span>, Encounter Diagnosis <span style="background: LightGoldenRodYellow; margin: 4px; border: 1px solid khaki"> (<a href="http://hl7.org/fhir/us/core/STU6.1/CodeSystem-condition-category.html">US Core Condition Category Extension Codes</a>#encounter-diagnosis)</span>, Encounter Diagnosis <span style="background: LightGoldenRodYellow; margin: 4px; border: 1px solid khaki"> (<a href="http://terminology.hl7.org/5.4.0/CodeSystem-condition-category.html">Condition Category Codes</a>#encounter-diagnosis)</span></p><p><b>code</b>: Depressive disorder (disorder) <span style="background: LightGoldenRodYellow; margin: 4px; border: 1px solid khaki"> (<a href="https://browser.ihtsdotools.org/">SNOWMED CT</a>#35489007)</span></p><p><b>bodySite</b>: Brain structure (body structure) <span style="background: LightGoldenRodYellow; margin: 4px; border: 1px solid khaki"> (<a href="https://browser.ihtsdotools.org/">SNOWMED CT</a>#12738006)</span></p><p><b>subject</b>: See on this page: Patient/Example-Smith-Johnson-Patient1</p></div>
        </text>
        <extension url="http://hl7.org/fhir/StructureDefinition/condition-assertedDate">
          <valueDateTime value="2005-02"/>
        </extension>
        <clinicalStatus>
          <coding>
            <system value="http://terminology.hl7.org/CodeSystem/condition-clinical"/>
            <code value="active"/>
          </coding>
        </clinicalStatus>
        <verificationStatus>
          <coding>
            <system value="http://terminology.hl7.org/CodeSystem/condition-ver-status"/>
            <code value="confirmed"/>
          </coding>
        </verificationStatus>
        <category>
          <coding>
            <system value="http://hl7.org/fhir/sid/icf"/>
            <code value="b152"/>
            <display value="Emotional functions"/>
          </coding>
        </category>
        <category>
          <coding>
            <system value="http://hl7.org/fhir/us/core/CodeSystem/condition-category"/>
            <code value="encounter-diagnosis"/>
            <display value="Encounter Diagnosis"/>
          </coding>
        </category>
        <category>
          <coding>
            <system value="http://terminology.hl7.org/CodeSystem/condition-category"/>
            <code value="encounter-diagnosis"/>
          </coding>
        </category>
        <code>
          <coding>
            <system value="http://snomed.info/sct"/>
            <code value="35489007"/>
            <display value="Depressive disorder (disorder)"/>
          </coding>
        </code>
        <bodySite>
          <coding>
            <system value="http://snomed.info/sct"/>
            <code value="12738006"/>
            <display value="Brain structure (body structure)"/>
          </coding>
        </bodySite>
        <subject>
          <reference value="Patient/Example-Smith-Johnson-Patient1"/>
        </subject>
      </Condition>
    </resource>
  </entry>
  <entry>
    <fullUrl value="http://www.example.org/fhir/Condition/BSJ-DiabetesDiagnosis"/>
    <resource>
      <Condition>
        <id value="BSJ-DiabetesDiagnosis"/>
        <meta>
          <profile value="http://hl7.org/fhir/us/core/StructureDefinition/us-core-condition-encounter-diagnosis"/>
        </meta>
        <text>
          <status value="extensions"/><div xmlns="http://www.w3.org/1999/xhtml"><a name="Condition_BSJ-DiabetesDiagnosis"> </a><p><b>Generated Narrative: Condition</b><a name="BSJ-DiabetesDiagnosis"> </a><a name="hcBSJ-DiabetesDiagnosis"> </a></p><div style="display: inline-block; background-color: #d9e0e7; padding: 6px; margin: 4px; border: 1px solid #8da1b4; border-radius: 5px; line-height: 60%"><p style="margin-bottom: 0px">ResourceCondition &quot;BSJ-DiabetesDiagnosis&quot; </p><p style="margin-bottom: 0px">Profile: <a href="http://hl7.org/fhir/us/core/STU6.1/StructureDefinition-us-core-condition-encounter-diagnosis.html">US Core Condition Encounter Diagnosis Profile</a></p></div><p><b>Condition Asserted Date</b>: 2017-06</p><p><b>clinicalStatus</b>: Active <span style="background: LightGoldenRodYellow; margin: 4px; border: 1px solid khaki"> (<a href="http://terminology.hl7.org/5.4.0/CodeSystem-condition-clinical.html">Condition Clinical Status Codes</a>#active)</span></p><p><b>verificationStatus</b>: Confirmed <span style="background: LightGoldenRodYellow; margin: 4px; border: 1px solid khaki"> (<a href="http://terminology.hl7.org/5.4.0/CodeSystem-condition-ver-status.html">ConditionVerificationStatus</a>#confirmed)</span></p><p><b>category</b>: Carbohydrate metabolism <span style="background: LightGoldenRodYellow; margin: 4px; border: 1px solid khaki"> (<a href="http://terminology.hl7.org/5.0.0/CodeSystem-ICF.html">International Classification of Functioning, Disability and Health</a>#b5401)</span>, Encounter Diagnosis <span style="background: LightGoldenRodYellow; margin: 4px; border: 1px solid khaki"> (<a href="http://hl7.org/fhir/us/core/STU6.1/CodeSystem-condition-category.html">US Core Condition Category Extension Codes</a>#encounter-diagnosis)</span>, Encounter Diagnosis <span style="background: LightGoldenRodYellow; margin: 4px; border: 1px solid khaki"> (<a href="http://terminology.hl7.org/5.4.0/CodeSystem-condition-category.html">Condition Category Codes</a>#encounter-diagnosis)</span></p><p><b>code</b>: Diabetes mellitus type 2 in nonobese (disorder) <span style="background: LightGoldenRodYellow; margin: 4px; border: 1px solid khaki"> (<a href="https://browser.ihtsdotools.org/">SNOWMED CT</a>#359642000)</span></p><p><b>bodySite</b>: Structure of endocrine system (body structure) <span style="background: LightGoldenRodYellow; margin: 4px; border: 1px solid khaki"> (<a href="https://browser.ihtsdotools.org/">SNOWMED CT</a>#113331007)</span></p><p><b>subject</b>: See on this page: Patient/Example-Smith-Johnson-Patient1</p><p><b>onset</b>: 2017-06</p><p><b>recordedDate</b>: 2017-06-05</p><p><b>asserter</b>: See on this page: PractitionerRole/Role-IMMD-AnitaChu</p></div>
        </text>
        <extension url="http://hl7.org/fhir/StructureDefinition/condition-assertedDate">
          <valueDateTime value="2017-06"/>
        </extension>
        <clinicalStatus>
          <coding>
            <system value="http://terminology.hl7.org/CodeSystem/condition-clinical"/>
            <code value="active"/>
          </coding>
        </clinicalStatus>
        <verificationStatus>
          <coding>
            <system value="http://terminology.hl7.org/CodeSystem/condition-ver-status"/>
            <code value="confirmed"/>
          </coding>
        </verificationStatus>
        <category>
          <coding>
            <system value="http://hl7.org/fhir/sid/icf"/>
            <code value="b5401"/>
            <display value="Carbohydrate metabolism"/>
          </coding>
        </category>
        <category>
          <coding>
            <system value="http://hl7.org/fhir/us/core/CodeSystem/condition-category"/>
            <code value="encounter-diagnosis"/>
            <display value="Encounter Diagnosis"/>
          </coding>
        </category>
        <category>
          <coding>
            <system value="http://terminology.hl7.org/CodeSystem/condition-category"/>
            <code value="encounter-diagnosis"/>
          </coding>
        </category>
        <code>
          <coding>
            <system value="http://snomed.info/sct"/>
            <code value="359642000"/>
            <display value="Diabetes mellitus type 2 in nonobese (disorder)"/>
          </coding>
        </code>
        <bodySite>
          <coding>
            <system value="http://snomed.info/sct"/>
            <code value="113331007"/>
            <display value="Structure of endocrine system (body structure)"/>
          </coding>
        </bodySite>
        <subject>
          <reference value="Patient/Example-Smith-Johnson-Patient1"/>
        </subject>
        <onsetDateTime value="2017-06"/>
        <recordedDate value="2017-06-05"/>
        <asserter>
          <reference value="PractitionerRole/Role-IMMD-AnitaChu"/>
        </asserter>
      </Condition>
    </resource>
  </entry>
  <entry>
    <fullUrl value="http://www.example.org/fhir/Condition/BSJ-DressingConcern"/>
    <resource>
      <Condition>
        <id value="BSJ-DressingConcern"/>
        <meta>
          <profile value="http://hl7.org/fhir/us/core/StructureDefinition/us-core-condition-problems-health-concerns"/>
        </meta>
        <text>
          <status value="generated"/><div xmlns="http://www.w3.org/1999/xhtml"><a name="Condition_BSJ-DressingConcern"> </a><p><b>Generated Narrative: Condition</b><a name="BSJ-DressingConcern"> </a><a name="hcBSJ-DressingConcern"> </a></p><div style="display: inline-block; background-color: #d9e0e7; padding: 6px; margin: 4px; border: 1px solid #8da1b4; border-radius: 5px; line-height: 60%"><p style="margin-bottom: 0px">ResourceCondition &quot;BSJ-DressingConcern&quot; </p><p style="margin-bottom: 0px">Profile: <a href="http://hl7.org/fhir/us/core/STU6.1/StructureDefinition-us-core-condition-problems-health-concerns.html">US Core Condition Problems and Health Concerns Profile</a></p></div><p><b>clinicalStatus</b>: Active <span style="background: LightGoldenRodYellow; margin: 4px; border: 1px solid khaki"> (<a href="http://terminology.hl7.org/5.4.0/CodeSystem-condition-clinical.html">Condition Clinical Status Codes</a>#active)</span></p><p><b>verificationStatus</b>: Confirmed <span style="background: LightGoldenRodYellow; margin: 4px; border: 1px solid khaki"> (<a href="http://terminology.hl7.org/5.4.0/CodeSystem-condition-ver-status.html">ConditionVerificationStatus</a>#confirmed)</span></p><p><b>category</b>: control of complex voluntary movements <span style="background: LightGoldenRodYellow; margin: 4px; border: 1px solid khaki"> (<a href="http://terminology.hl7.org/5.0.0/CodeSystem-ICF.html">International Classification of Functioning, Disability and Health</a>#b7601)</span>, Health Concern <span style="background: LightGoldenRodYellow; margin: 4px; border: 1px solid khaki"> (<a href="http://hl7.org/fhir/us/core/STU6.1/CodeSystem-condition-category.html">US Core Condition Category Extension Codes</a>#health-concern)</span>, Functional Status <span style="background: LightGoldenRodYellow; margin: 4px; border: 1px solid khaki"> (<a href="http://hl7.org/fhir/us/core/STU6.1/CodeSystem-us-core-category.html">US Core Category</a>#functional-status)</span></p><p><b>code</b>: Difficulty performing dressing activity (finding) <span style="background: LightGoldenRodYellow; margin: 4px; border: 1px solid khaki"> (<a href="https://browser.ihtsdotools.org/">SNOWMED CT</a>#284972002)</span></p><p><b>subject</b>: See on this page: Patient/Example-Smith-Johnson-Patient1</p><p><b>recordedDate</b>: 2024-04-27 15:40:00-0400</p><p><b>asserter</b>: See on this page: PractitionerRole/Role-OT-JenCadbury</p><p><b>note</b>: Betsy is frustrated, embarrassed, and worried about not being able to dress herself</p></div>
        </text>
        <clinicalStatus>
          <coding>
            <system value="http://terminology.hl7.org/CodeSystem/condition-clinical"/>
            <code value="active"/>
          </coding>
        </clinicalStatus>
        <verificationStatus>
          <coding>
            <system value="http://terminology.hl7.org/CodeSystem/condition-ver-status"/>
            <code value="confirmed"/>
          </coding>
        </verificationStatus>
        <category>
          <coding>
            <system value="http://hl7.org/fhir/sid/icf"/>
            <code value="b7601"/>
            <display value="control of complex voluntary movements"/>
          </coding>
        </category>
        <category>
          <coding>
            <system value="http://hl7.org/fhir/us/core/CodeSystem/condition-category"/>
            <code value="health-concern"/>
            <display value="Health Concern"/>
          </coding>
        </category>
        <category>
          <coding>
            <system value="http://hl7.org/fhir/us/core/CodeSystem/us-core-category"/>
            <code value="functional-status"/>
            <display value="Functional Status"/>
          </coding>
        </category>
        <code>
          <coding>
            <system value="http://snomed.info/sct"/>
            <code value="284972002"/>
            <display value="Difficulty performing dressing activity (finding)"/>
          </coding>
        </code>
        <subject>
          <reference value="Patient/Example-Smith-Johnson-Patient1"/>
        </subject>
        <recordedDate value="2024-04-27T15:40:00-04:00"/>
        <asserter>
          <reference value="PractitionerRole/Role-OT-JenCadbury"/>
        </asserter>
        <note>
          <text value="Betsy is frustrated, embarrassed, and worried about not being able to dress herself"/>
        </note>
      </Condition>
    </resource>
  </entry>
  <entry>
    <fullUrl value="http://www.example.org/fhir/Condition/BSJ-HeartDiseaseDiagnosis"/>
    <resource>
      <Condition>
        <id value="BSJ-HeartDiseaseDiagnosis"/>
        <meta>
          <profile value="http://hl7.org/fhir/us/core/StructureDefinition/us-core-condition-encounter-diagnosis"/>
        </meta>
        <text>
          <status value="extensions"/><div xmlns="http://www.w3.org/1999/xhtml"><a name="Condition_BSJ-HeartDiseaseDiagnosis"> </a><p><b>Generated Narrative: Condition</b><a name="BSJ-HeartDiseaseDiagnosis"> </a><a name="hcBSJ-HeartDiseaseDiagnosis"> </a></p><div style="display: inline-block; background-color: #d9e0e7; padding: 6px; margin: 4px; border: 1px solid #8da1b4; border-radius: 5px; line-height: 60%"><p style="margin-bottom: 0px">ResourceCondition &quot;BSJ-HeartDiseaseDiagnosis&quot; </p><p style="margin-bottom: 0px">Profile: <a href="http://hl7.org/fhir/us/core/STU6.1/StructureDefinition-us-core-condition-encounter-diagnosis.html">US Core Condition Encounter Diagnosis Profile</a></p></div><p><b>Condition Asserted Date</b>: 2019-06</p><p><b>clinicalStatus</b>: Active <span style="background: LightGoldenRodYellow; margin: 4px; border: 1px solid khaki"> (<a href="http://terminology.hl7.org/5.4.0/CodeSystem-condition-clinical.html">Condition Clinical Status Codes</a>#active)</span></p><p><b>verificationStatus</b>: Confirmed <span style="background: LightGoldenRodYellow; margin: 4px; border: 1px solid khaki"> (<a href="http://terminology.hl7.org/5.4.0/CodeSystem-condition-ver-status.html">ConditionVerificationStatus</a>#confirmed)</span></p><p><b>category</b>: Blood vessel functions <span style="background: LightGoldenRodYellow; margin: 4px; border: 1px solid khaki"> (<a href="http://terminology.hl7.org/5.0.0/CodeSystem-ICF.html">International Classification of Functioning, Disability and Health</a>#b415)</span>, Encounter Diagnosis <span style="background: LightGoldenRodYellow; margin: 4px; border: 1px solid khaki"> (<a href="http://hl7.org/fhir/us/core/STU6.1/CodeSystem-condition-category.html">US Core Condition Category Extension Codes</a>#encounter-diagnosis)</span>, Encounter Diagnosis <span style="background: LightGoldenRodYellow; margin: 4px; border: 1px solid khaki"> (<a href="http://terminology.hl7.org/5.4.0/CodeSystem-condition-category.html">Condition Category Codes</a>#encounter-diagnosis)</span></p><p><b>code</b>: Ischemic heart disease (disorder) <span style="background: LightGoldenRodYellow; margin: 4px; border: 1px solid khaki"> (<a href="https://browser.ihtsdotools.org/">SNOWMED CT</a>#414545008)</span></p><p><b>bodySite</b>: Structure of cardiovascular system (body structure) <span style="background: LightGoldenRodYellow; margin: 4px; border: 1px solid khaki"> (<a href="https://browser.ihtsdotools.org/">SNOWMED CT</a>#113257007)</span></p><p><b>subject</b>: See on this page: Patient/Example-Smith-Johnson-Patient1</p><p><b>recordedDate</b>: 2019-06-08 14:15:00-0400</p><p><b>asserter</b>: See on this page: PractitionerRole/Role-IMMD-AnitaChu</p></div>
        </text>
        <extension url="http://hl7.org/fhir/StructureDefinition/condition-assertedDate">
          <valueDateTime value="2019-06"/>
        </extension>
        <clinicalStatus>
          <coding>
            <system value="http://terminology.hl7.org/CodeSystem/condition-clinical"/>
            <code value="active"/>
          </coding>
        </clinicalStatus>
        <verificationStatus>
          <coding>
            <system value="http://terminology.hl7.org/CodeSystem/condition-ver-status"/>
            <code value="confirmed"/>
          </coding>
        </verificationStatus>
        <category>
          <coding>
            <system value="http://hl7.org/fhir/sid/icf"/>
            <code value="b415"/>
            <display value="Blood vessel functions"/>
          </coding>
        </category>
        <category>
          <coding>
            <system value="http://hl7.org/fhir/us/core/CodeSystem/condition-category"/>
            <code value="encounter-diagnosis"/>
            <display value="Encounter Diagnosis"/>
          </coding>
        </category>
        <category>
          <coding>
            <system value="http://terminology.hl7.org/CodeSystem/condition-category"/>
            <code value="encounter-diagnosis"/>
          </coding>
        </category>
        <code>
          <coding>
            <system value="http://snomed.info/sct"/>
            <code value="414545008"/>
            <display value="Ischemic heart disease (disorder)"/>
          </coding>
        </code>
        <bodySite>
          <coding>
            <system value="http://snomed.info/sct"/>
            <code value="113257007"/>
            <display value="Structure of cardiovascular system (body structure)"/>
          </coding>
        </bodySite>
        <subject>
          <reference value="Patient/Example-Smith-Johnson-Patient1"/>
        </subject>
        <recordedDate value="2019-06-08T14:15:00-04:00"/>
        <asserter>
          <reference value="PractitionerRole/Role-IMMD-AnitaChu"/>
        </asserter>
      </Condition>
    </resource>
  </entry>
  <entry>
    <fullUrl value="http://www.example.org/fhir/Condition/BSJ-HemiparesisDiagnosis"/>
    <resource>
      <Condition>
        <id value="BSJ-HemiparesisDiagnosis"/>
        <meta>
          <profile value="http://hl7.org/fhir/us/core/StructureDefinition/us-core-condition-encounter-diagnosis"/>
        </meta>
        <text>
          <status value="extensions"/><div xmlns="http://www.w3.org/1999/xhtml"><a name="Condition_BSJ-HemiparesisDiagnosis"> </a><p><b>Generated Narrative: Condition</b><a name="BSJ-HemiparesisDiagnosis"> </a><a name="hcBSJ-HemiparesisDiagnosis"> </a></p><div style="display: inline-block; background-color: #d9e0e7; padding: 6px; margin: 4px; border: 1px solid #8da1b4; border-radius: 5px; line-height: 60%"><p style="margin-bottom: 0px">ResourceCondition &quot;BSJ-HemiparesisDiagnosis&quot; </p><p style="margin-bottom: 0px">Profile: <a href="http://hl7.org/fhir/us/core/STU6.1/StructureDefinition-us-core-condition-encounter-diagnosis.html">US Core Condition Encounter Diagnosis Profile</a></p></div><p><b>Condition Asserted Date</b>: 2024-04-18 13:30:00-0400</p><p><b>clinicalStatus</b>: Active <span style="background: LightGoldenRodYellow; margin: 4px; border: 1px solid khaki"> (<a href="http://terminology.hl7.org/5.4.0/CodeSystem-condition-clinical.html">Condition Clinical Status Codes</a>#active)</span></p><p><b>verificationStatus</b>: Confirmed <span style="background: LightGoldenRodYellow; margin: 4px; border: 1px solid khaki"> (<a href="http://terminology.hl7.org/5.4.0/CodeSystem-condition-ver-status.html">ConditionVerificationStatus</a>#confirmed)</span></p><p><b>category</b>: Power of muscles on one side of the body <span style="background: LightGoldenRodYellow; margin: 4px; border: 1px solid khaki"> (<a href="http://terminology.hl7.org/5.0.0/CodeSystem-ICF.html">International Classification of Functioning, Disability and Health</a>#b7302)</span>, Encounter Diagnosis <span style="background: LightGoldenRodYellow; margin: 4px; border: 1px solid khaki"> (<a href="http://hl7.org/fhir/us/core/STU6.1/CodeSystem-condition-category.html">US Core Condition Category Extension Codes</a>#encounter-diagnosis)</span>, Encounter Diagnosis <span style="background: LightGoldenRodYellow; margin: 4px; border: 1px solid khaki"> (<a href="http://terminology.hl7.org/5.4.0/CodeSystem-condition-category.html">Condition Category Codes</a>#encounter-diagnosis)</span></p><p><b>code</b>: Right hemiparesis (disorder) <span style="background: LightGoldenRodYellow; margin: 4px; border: 1px solid khaki"> (<a href="https://browser.ihtsdotools.org/">SNOWMED CT</a>#278286009)</span></p><p><b>bodySite</b>: Right upper arm structure (body structure) <span style="background: LightGoldenRodYellow; margin: 4px; border: 1px solid khaki"> (<a href="https://browser.ihtsdotools.org/">SNOWMED CT</a>#368209003)</span></p><p><b>subject</b>: See on this page: Patient/Example-Smith-Johnson-Patient1</p><p><b>onset</b>: 2024-04-17 15:40:00-0400</p><p><b>recordedDate</b>: 2024-04-18 13:30:00-0400</p><p><b>asserter</b>: See on this page: PractitionerRole/Role-Neuro-NuraMekel</p><p><b>note</b>: Patient began experiencing right sided weakness, primarily in arm and shoulder. There was no facial droop, but patient reports &quot;tingling&quot; in R face / numbness along R brow. Symptoms in face resolved post tPA administration. Strength improved in shoulder, weakness did not fully resolve. Demonstrates R arm weakness and lack of coordination. Fine motor skills significantly degraded and have not improved post tPA.</p></div>
        </text>
        <extension url="http://hl7.org/fhir/StructureDefinition/condition-assertedDate">
          <valueDateTime value="2024-04-18T13:30:00-04:00"/>
        </extension>
        <clinicalStatus>
          <coding>
            <system value="http://terminology.hl7.org/CodeSystem/condition-clinical"/>
            <code value="active"/>
          </coding>
        </clinicalStatus>
        <verificationStatus>
          <coding>
            <system value="http://terminology.hl7.org/CodeSystem/condition-ver-status"/>
            <code value="confirmed"/>
          </coding>
        </verificationStatus>
        <category>
          <coding>
            <system value="http://hl7.org/fhir/sid/icf"/>
            <code value="b7302"/>
            <display value="Power of muscles on one side of the body"/>
          </coding>
        </category>
        <category>
          <coding>
            <system value="http://hl7.org/fhir/us/core/CodeSystem/condition-category"/>
            <code value="encounter-diagnosis"/>
            <display value="Encounter Diagnosis"/>
          </coding>
        </category>
        <category>
          <coding>
            <system value="http://terminology.hl7.org/CodeSystem/condition-category"/>
            <code value="encounter-diagnosis"/>
          </coding>
        </category>
        <code>
          <coding>
            <system value="http://snomed.info/sct"/>
            <code value="278286009"/>
            <display value="Right hemiparesis (disorder)"/>
          </coding>
        </code>
        <bodySite>
          <coding>
            <system value="http://snomed.info/sct"/>
            <code value="368209003"/>
            <display value="Right upper arm structure (body structure)"/>
          </coding>
        </bodySite>
        <subject>
          <reference value="Patient/Example-Smith-Johnson-Patient1"/>
        </subject>
        <onsetDateTime value="2024-04-17T15:40:00-04:00"/>
        <recordedDate value="2024-04-18T13:30:00-04:00"/>
        <asserter>
          <reference value="PractitionerRole/Role-Neuro-NuraMekel"/>
        </asserter>
        <note>
          <text value="Patient began experiencing right sided weakness, primarily in arm and shoulder. There was no facial droop, but patient reports &quot;tingling&quot; in R face / numbness along R brow. Symptoms in face resolved post tPA administration. Strength improved in shoulder, weakness did not fully resolve. Demonstrates R arm weakness and lack of coordination. Fine motor skills significantly degraded and have not improved post tPA."/>
        </note>
      </Condition>
    </resource>
  </entry>
  <entry>
    <fullUrl value="http://www.example.org/fhir/Condition/BSJ-Hyperlipidemia"/>
    <resource>
      <Condition>
        <id value="BSJ-Hyperlipidemia"/>
        <meta>
          <profile value="http://hl7.org/fhir/us/core/StructureDefinition/us-core-condition-encounter-diagnosis"/>
        </meta>
        <text>
          <status value="extensions"/><div xmlns="http://www.w3.org/1999/xhtml"><a name="Condition_BSJ-Hyperlipidemia"> </a><p><b>Generated Narrative: Condition</b><a name="BSJ-Hyperlipidemia"> </a><a name="hcBSJ-Hyperlipidemia"> </a></p><div style="display: inline-block; background-color: #d9e0e7; padding: 6px; margin: 4px; border: 1px solid #8da1b4; border-radius: 5px; line-height: 60%"><p style="margin-bottom: 0px">ResourceCondition &quot;BSJ-Hyperlipidemia&quot; </p><p style="margin-bottom: 0px">Profile: <a href="http://hl7.org/fhir/us/core/STU6.1/StructureDefinition-us-core-condition-encounter-diagnosis.html">US Core Condition Encounter Diagnosis Profile</a></p></div><p><b>Condition Asserted Date</b>: 2018-06</p><p><b>clinicalStatus</b>: Active <span style="background: LightGoldenRodYellow; margin: 4px; border: 1px solid khaki"> (<a href="http://terminology.hl7.org/5.4.0/CodeSystem-condition-clinical.html">Condition Clinical Status Codes</a>#active)</span></p><p><b>verificationStatus</b>: Confirmed <span style="background: LightGoldenRodYellow; margin: 4px; border: 1px solid khaki"> (<a href="http://terminology.hl7.org/5.4.0/CodeSystem-condition-ver-status.html">ConditionVerificationStatus</a>#confirmed)</span></p><p><b>category</b>: Fat metabolism <span style="background: LightGoldenRodYellow; margin: 4px; border: 1px solid khaki"> (<a href="http://terminology.hl7.org/5.0.0/CodeSystem-ICF.html">International Classification of Functioning, Disability and Health</a>#b5403)</span>, Encounter Diagnosis <span style="background: LightGoldenRodYellow; margin: 4px; border: 1px solid khaki"> (<a href="http://hl7.org/fhir/us/core/STU6.1/CodeSystem-condition-category.html">US Core Condition Category Extension Codes</a>#encounter-diagnosis)</span>, Encounter Diagnosis <span style="background: LightGoldenRodYellow; margin: 4px; border: 1px solid khaki"> (<a href="http://terminology.hl7.org/5.4.0/CodeSystem-condition-category.html">Condition Category Codes</a>#encounter-diagnosis)</span></p><p><b>code</b>: Hyperlipidemia (disorder) <span style="background: LightGoldenRodYellow; margin: 4px; border: 1px solid khaki"> (<a href="https://browser.ihtsdotools.org/">SNOWMED CT</a>#55822004)</span></p><p><b>bodySite</b>: Structure of cardiovascular system (body structure) <span style="background: LightGoldenRodYellow; margin: 4px; border: 1px solid khaki"> (<a href="https://browser.ihtsdotools.org/">SNOWMED CT</a>#113257007)</span></p><p><b>subject</b>: See on this page: Patient/Example-Smith-Johnson-Patient1</p><p><b>asserter</b>: See on this page: PractitionerRole/Role-IMMD-AnitaChu</p></div>
        </text>
        <extension url="http://hl7.org/fhir/StructureDefinition/condition-assertedDate">
          <valueDateTime value="2018-06"/>
        </extension>
        <clinicalStatus>
          <coding>
            <system value="http://terminology.hl7.org/CodeSystem/condition-clinical"/>
            <code value="active"/>
          </coding>
        </clinicalStatus>
        <verificationStatus>
          <coding>
            <system value="http://terminology.hl7.org/CodeSystem/condition-ver-status"/>
            <code value="confirmed"/>
          </coding>
        </verificationStatus>
        <category>
          <coding>
            <system value="http://hl7.org/fhir/sid/icf"/>
            <code value="b5403"/>
            <display value="Fat metabolism"/>
          </coding>
        </category>
        <category>
          <coding>
            <system value="http://hl7.org/fhir/us/core/CodeSystem/condition-category"/>
            <code value="encounter-diagnosis"/>
            <display value="Encounter Diagnosis"/>
          </coding>
        </category>
        <category>
          <coding>
            <system value="http://terminology.hl7.org/CodeSystem/condition-category"/>
            <code value="encounter-diagnosis"/>
          </coding>
        </category>
        <code>
          <coding>
            <system value="http://snomed.info/sct"/>
            <code value="55822004"/>
            <display value="Hyperlipidemia (disorder)"/>
          </coding>
        </code>
        <bodySite>
          <coding>
            <system value="http://snomed.info/sct"/>
            <code value="113257007"/>
            <display value="Structure of cardiovascular system (body structure)"/>
          </coding>
        </bodySite>
        <subject>
          <reference value="Patient/Example-Smith-Johnson-Patient1"/>
        </subject>
        <asserter>
          <reference value="PractitionerRole/Role-IMMD-AnitaChu"/>
        </asserter>
      </Condition>
    </resource>
  </entry>
  <entry>
    <fullUrl value="http://www.example.org/fhir/Condition/BSJ-HypertensionDiagnosis"/>
    <resource>
      <Condition>
        <id value="BSJ-HypertensionDiagnosis"/>
        <meta>
          <profile value="http://hl7.org/fhir/us/core/StructureDefinition/us-core-condition-encounter-diagnosis"/>
        </meta>
        <text>
          <status value="extensions"/><div xmlns="http://www.w3.org/1999/xhtml"><a name="Condition_BSJ-HypertensionDiagnosis"> </a><p><b>Generated Narrative: Condition</b><a name="BSJ-HypertensionDiagnosis"> </a><a name="hcBSJ-HypertensionDiagnosis"> </a></p><div style="display: inline-block; background-color: #d9e0e7; padding: 6px; margin: 4px; border: 1px solid #8da1b4; border-radius: 5px; line-height: 60%"><p style="margin-bottom: 0px">ResourceCondition &quot;BSJ-HypertensionDiagnosis&quot; </p><p style="margin-bottom: 0px">Profile: <a href="http://hl7.org/fhir/us/core/STU6.1/StructureDefinition-us-core-condition-encounter-diagnosis.html">US Core Condition Encounter Diagnosis Profile</a></p></div><p><b>Condition Asserted Date</b>: 2011-09</p><p><b>clinicalStatus</b>: Active <span style="background: LightGoldenRodYellow; margin: 4px; border: 1px solid khaki"> (<a href="http://terminology.hl7.org/5.4.0/CodeSystem-condition-clinical.html">Condition Clinical Status Codes</a>#active)</span></p><p><b>verificationStatus</b>: Confirmed <span style="background: LightGoldenRodYellow; margin: 4px; border: 1px solid khaki"> (<a href="http://terminology.hl7.org/5.4.0/CodeSystem-condition-ver-status.html">ConditionVerificationStatus</a>#confirmed)</span></p><p><b>category</b>: Maintenance of blood pressure <span style="background: LightGoldenRodYellow; margin: 4px; border: 1px solid khaki"> (<a href="http://terminology.hl7.org/5.0.0/CodeSystem-ICF.html">International Classification of Functioning, Disability and Health</a>#b4202)</span>, Encounter Diagnosis <span style="background: LightGoldenRodYellow; margin: 4px; border: 1px solid khaki"> (<a href="http://hl7.org/fhir/us/core/STU6.1/CodeSystem-condition-category.html">US Core Condition Category Extension Codes</a>#encounter-diagnosis)</span>, Encounter Diagnosis <span style="background: LightGoldenRodYellow; margin: 4px; border: 1px solid khaki"> (<a href="http://terminology.hl7.org/5.4.0/CodeSystem-condition-category.html">Condition Category Codes</a>#encounter-diagnosis)</span></p><p><b>code</b>: Hypertensive disorder, systemic arterial (disorder) <span style="background: LightGoldenRodYellow; margin: 4px; border: 1px solid khaki"> (<a href="https://browser.ihtsdotools.org/">SNOWMED CT</a>#38341003)</span></p><p><b>bodySite</b>: Structure of cardiovascular system (body structure) <span style="background: LightGoldenRodYellow; margin: 4px; border: 1px solid khaki"> (<a href="https://browser.ihtsdotools.org/">SNOWMED CT</a>#113257007)</span></p><p><b>subject</b>: See on this page: Patient/Example-Smith-Johnson-Patient1</p><p><b>onset</b>: 2011-08</p><p><b>recordedDate</b>: 2011-09-17</p><p><b>asserter</b>: See on this page: PractitionerRole/Role-IMMD-AnitaChu</p></div>
        </text>
        <extension url="http://hl7.org/fhir/StructureDefinition/condition-assertedDate">
          <valueDateTime value="2011-09"/>
        </extension>
        <clinicalStatus>
          <coding>
            <system value="http://terminology.hl7.org/CodeSystem/condition-clinical"/>
            <code value="active"/>
          </coding>
        </clinicalStatus>
        <verificationStatus>
          <coding>
            <system value="http://terminology.hl7.org/CodeSystem/condition-ver-status"/>
            <code value="confirmed"/>
          </coding>
        </verificationStatus>
        <category>
          <coding>
            <system value="http://hl7.org/fhir/sid/icf"/>
            <code value="b4202"/>
            <display value="Maintenance of blood pressure"/>
          </coding>
        </category>
        <category>
          <coding>
            <system value="http://hl7.org/fhir/us/core/CodeSystem/condition-category"/>
            <code value="encounter-diagnosis"/>
            <display value="Encounter Diagnosis"/>
          </coding>
        </category>
        <category>
          <coding>
            <system value="http://terminology.hl7.org/CodeSystem/condition-category"/>
            <code value="encounter-diagnosis"/>
          </coding>
        </category>
        <code>
          <coding>
            <system value="http://snomed.info/sct"/>
            <code value="38341003"/>
            <display value="Hypertensive disorder, systemic arterial (disorder)"/>
          </coding>
        </code>
        <bodySite>
          <coding>
            <system value="http://snomed.info/sct"/>
            <code value="113257007"/>
            <display value="Structure of cardiovascular system (body structure)"/>
          </coding>
        </bodySite>
        <subject>
          <reference value="Patient/Example-Smith-Johnson-Patient1"/>
        </subject>
        <onsetDateTime value="2011-08"/>
        <recordedDate value="2011-09-17"/>
        <asserter>
          <reference value="PractitionerRole/Role-IMMD-AnitaChu"/>
        </asserter>
      </Condition>
    </resource>
  </entry>
  <entry>
    <fullUrl value="http://www.example.org/fhir/Condition/BSJ-KidneyDisease"/>
    <resource>
      <Condition>
        <id value="BSJ-KidneyDisease"/>
        <meta>
          <profile value="http://hl7.org/fhir/us/core/StructureDefinition/us-core-condition-encounter-diagnosis"/>
        </meta>
        <text>
          <status value="extensions"/><div xmlns="http://www.w3.org/1999/xhtml"><a name="Condition_BSJ-KidneyDisease"> </a><p><b>Generated Narrative: Condition</b><a name="BSJ-KidneyDisease"> </a><a name="hcBSJ-KidneyDisease"> </a></p><div style="display: inline-block; background-color: #d9e0e7; padding: 6px; margin: 4px; border: 1px solid #8da1b4; border-radius: 5px; line-height: 60%"><p style="margin-bottom: 0px">ResourceCondition &quot;BSJ-KidneyDisease&quot; </p><p style="margin-bottom: 0px">Profile: <a href="http://hl7.org/fhir/us/core/STU6.1/StructureDefinition-us-core-condition-encounter-diagnosis.html">US Core Condition Encounter Diagnosis Profile</a></p></div><p><b>Condition Asserted Date</b>: 2021-04</p><p><b>clinicalStatus</b>: Active <span style="background: LightGoldenRodYellow; margin: 4px; border: 1px solid khaki"> (<a href="http://terminology.hl7.org/5.4.0/CodeSystem-condition-clinical.html">Condition Clinical Status Codes</a>#active)</span></p><p><b>verificationStatus</b>: Confirmed <span style="background: LightGoldenRodYellow; margin: 4px; border: 1px solid khaki"> (<a href="http://terminology.hl7.org/5.4.0/CodeSystem-condition-ver-status.html">ConditionVerificationStatus</a>#confirmed)</span></p><p><b>category</b>: Urinary excretory functions <span style="background: LightGoldenRodYellow; margin: 4px; border: 1px solid khaki"> (<a href="http://terminology.hl7.org/5.0.0/CodeSystem-ICF.html">International Classification of Functioning, Disability and Health</a>#b610)</span>, Encounter Diagnosis <span style="background: LightGoldenRodYellow; margin: 4px; border: 1px solid khaki"> (<a href="http://hl7.org/fhir/us/core/STU6.1/CodeSystem-condition-category.html">US Core Condition Category Extension Codes</a>#encounter-diagnosis)</span>, Encounter Diagnosis <span style="background: LightGoldenRodYellow; margin: 4px; border: 1px solid khaki"> (<a href="http://terminology.hl7.org/5.4.0/CodeSystem-condition-category.html">Condition Category Codes</a>#encounter-diagnosis)</span></p><p><b>code</b>: Chronic kidney disease stage 3 due to type 2 diabetes mellitus (disorder) <span style="background: LightGoldenRodYellow; margin: 4px; border: 1px solid khaki"> (<a href="https://browser.ihtsdotools.org/">SNOWMED CT</a>#731000119105)</span></p><p><b>bodySite</b>: Both kidneys (body structure) <span style="background: LightGoldenRodYellow; margin: 4px; border: 1px solid khaki"> (<a href="https://browser.ihtsdotools.org/">SNOWMED CT</a>#17373004)</span></p><p><b>subject</b>: See on this page: Patient/Example-Smith-Johnson-Patient1</p><p><b>recordedDate</b>: 2021-04-10 15:00:00-0400</p><p><b>asserter</b>: See on this page: PractitionerRole/Role-IMMD-AnitaChu</p></div>
        </text>
        <extension url="http://hl7.org/fhir/StructureDefinition/condition-assertedDate">
          <valueDateTime value="2021-04"/>
        </extension>
        <clinicalStatus>
          <coding>
            <system value="http://terminology.hl7.org/CodeSystem/condition-clinical"/>
            <code value="active"/>
          </coding>
        </clinicalStatus>
        <verificationStatus>
          <coding>
            <system value="http://terminology.hl7.org/CodeSystem/condition-ver-status"/>
            <code value="confirmed"/>
          </coding>
        </verificationStatus>
        <category>
          <coding>
            <system value="http://hl7.org/fhir/sid/icf"/>
            <code value="b610"/>
            <display value="Urinary excretory functions"/>
          </coding>
        </category>
        <category>
          <coding>
            <system value="http://hl7.org/fhir/us/core/CodeSystem/condition-category"/>
            <code value="encounter-diagnosis"/>
            <display value="Encounter Diagnosis"/>
          </coding>
        </category>
        <category>
          <coding>
            <system value="http://terminology.hl7.org/CodeSystem/condition-category"/>
            <code value="encounter-diagnosis"/>
          </coding>
        </category>
        <code>
          <coding>
            <system value="http://snomed.info/sct"/>
            <code value="731000119105"/>
            <display value="Chronic kidney disease stage 3 due to type 2 diabetes mellitus (disorder)"/>
          </coding>
        </code>
        <bodySite>
          <coding>
            <system value="http://snomed.info/sct"/>
            <code value="17373004"/>
            <display value="Both kidneys (body structure)"/>
          </coding>
        </bodySite>
        <subject>
          <reference value="Patient/Example-Smith-Johnson-Patient1"/>
        </subject>
        <recordedDate value="2021-04-10T15:00:00-04:00"/>
        <asserter>
          <reference value="PractitionerRole/Role-IMMD-AnitaChu"/>
        </asserter>
      </Condition>
    </resource>
  </entry>
  <entry>
    <fullUrl value="http://www.example.org/fhir/Condition/BSJ-NauseaAndVomiting"/>
    <resource>
      <Condition>
        <id value="BSJ-NauseaAndVomiting"/>
        <meta>
          <profile value="http://hl7.org/fhir/us/core/StructureDefinition/us-core-condition-encounter-diagnosis"/>
        </meta>
        <text>
          <status value="extensions"/><div xmlns="http://www.w3.org/1999/xhtml"><a name="Condition_BSJ-NauseaAndVomiting"> </a><p><b>Generated Narrative: Condition</b><a name="BSJ-NauseaAndVomiting"> </a><a name="hcBSJ-NauseaAndVomiting"> </a></p><div style="display: inline-block; background-color: #d9e0e7; padding: 6px; margin: 4px; border: 1px solid #8da1b4; border-radius: 5px; line-height: 60%"><p style="margin-bottom: 0px">ResourceCondition &quot;BSJ-NauseaAndVomiting&quot; </p><p style="margin-bottom: 0px">Profile: <a href="http://hl7.org/fhir/us/core/STU6.1/StructureDefinition-us-core-condition-encounter-diagnosis.html">US Core Condition Encounter Diagnosis Profile</a></p></div><p><b>Condition Asserted Date</b>: 2024-04-18 16:30:00-0400</p><p><b>clinicalStatus</b>: Active <span style="background: LightGoldenRodYellow; margin: 4px; border: 1px solid khaki"> (<a href="http://terminology.hl7.org/5.4.0/CodeSystem-condition-clinical.html">Condition Clinical Status Codes</a>#active)</span></p><p><b>verificationStatus</b>: Confirmed <span style="background: LightGoldenRodYellow; margin: 4px; border: 1px solid khaki"> (<a href="http://terminology.hl7.org/5.4.0/CodeSystem-condition-ver-status.html">ConditionVerificationStatus</a>#confirmed)</span></p><p><b>category</b>: Sensation of nausea <span style="background: LightGoldenRodYellow; margin: 4px; border: 1px solid khaki"> (<a href="http://terminology.hl7.org/5.0.0/CodeSystem-ICF.html">International Classification of Functioning, Disability and Health</a>#b5350)</span>, Encounter Diagnosis <span style="background: LightGoldenRodYellow; margin: 4px; border: 1px solid khaki"> (<a href="http://hl7.org/fhir/us/core/STU6.1/CodeSystem-condition-category.html">US Core Condition Category Extension Codes</a>#encounter-diagnosis)</span>, Encounter Diagnosis <span style="background: LightGoldenRodYellow; margin: 4px; border: 1px solid khaki"> (<a href="http://terminology.hl7.org/5.4.0/CodeSystem-condition-category.html">Condition Category Codes</a>#encounter-diagnosis)</span></p><p><b>code</b>: Nausea and Vomiting (disorder) <span style="background: LightGoldenRodYellow; margin: 4px; border: 1px solid khaki"> (<a href="https://browser.ihtsdotools.org/">SNOWMED CT</a>#16932000)</span></p><p><b>subject</b>: See on this page: Patient/Example-Smith-Johnson-Patient1</p><p><b>onset</b>: 2024-04-18 16:30:00-0400</p><p><b>recordedDate</b>: 2024-04-18 16:30:00-0400</p><p><b>note</b>: Patient pressed call button for vomiting. She reports she started feeling nauseated about ten minutes ago.</p></div>
        </text>
        <extension url="http://hl7.org/fhir/StructureDefinition/condition-assertedDate">
          <valueDateTime value="2024-04-18T16:30:00-04:00"/>
        </extension>
        <clinicalStatus>
          <coding>
            <system value="http://terminology.hl7.org/CodeSystem/condition-clinical"/>
            <code value="active"/>
          </coding>
        </clinicalStatus>
        <verificationStatus>
          <coding>
            <system value="http://terminology.hl7.org/CodeSystem/condition-ver-status"/>
            <code value="confirmed"/>
          </coding>
        </verificationStatus>
        <category>
          <coding>
            <system value="http://hl7.org/fhir/sid/icf"/>
            <code value="b5350"/>
            <display value="Sensation of nausea"/>
          </coding>
        </category>
        <category>
          <coding>
            <system value="http://hl7.org/fhir/us/core/CodeSystem/condition-category"/>
            <code value="encounter-diagnosis"/>
            <display value="Encounter Diagnosis"/>
          </coding>
        </category>
        <category>
          <coding>
            <system value="http://terminology.hl7.org/CodeSystem/condition-category"/>
            <code value="encounter-diagnosis"/>
          </coding>
        </category>
        <code>
          <coding>
            <system value="http://snomed.info/sct"/>
            <code value="16932000"/>
            <display value="Nausea and Vomiting (disorder)"/>
          </coding>
        </code>
        <subject>
          <reference value="Patient/Example-Smith-Johnson-Patient1"/>
        </subject>
        <onsetDateTime value="2024-04-18T16:30:00-04:00"/>
        <recordedDate value="2024-04-18T16:30:00-04:00"/>
        <note>
          <text value="Patient pressed call button for vomiting. She reports she started feeling nauseated about ten minutes ago."/>
        </note>
      </Condition>
    </resource>
  </entry>
  <entry>
    <fullUrl value="http://www.example.org/fhir/Condition/BSJ-Neuropathy"/>
    <resource>
      <Condition>
        <id value="BSJ-Neuropathy"/>
        <meta>
          <profile value="http://hl7.org/fhir/us/core/StructureDefinition/us-core-condition-encounter-diagnosis"/>
        </meta>
        <text>
          <status value="extensions"/><div xmlns="http://www.w3.org/1999/xhtml"><a name="Condition_BSJ-Neuropathy"> </a><p><b>Generated Narrative: Condition</b><a name="BSJ-Neuropathy"> </a><a name="hcBSJ-Neuropathy"> </a></p><div style="display: inline-block; background-color: #d9e0e7; padding: 6px; margin: 4px; border: 1px solid #8da1b4; border-radius: 5px; line-height: 60%"><p style="margin-bottom: 0px">ResourceCondition &quot;BSJ-Neuropathy&quot; </p><p style="margin-bottom: 0px">Profile: <a href="http://hl7.org/fhir/us/core/STU6.1/StructureDefinition-us-core-condition-encounter-diagnosis.html">US Core Condition Encounter Diagnosis Profile</a></p></div><p><b>Condition Asserted Date</b>: 2020-07</p><p><b>clinicalStatus</b>: Active <span style="background: LightGoldenRodYellow; margin: 4px; border: 1px solid khaki"> (<a href="http://terminology.hl7.org/5.4.0/CodeSystem-condition-clinical.html">Condition Clinical Status Codes</a>#active)</span></p><p><b>verificationStatus</b>: Confirmed <span style="background: LightGoldenRodYellow; margin: 4px; border: 1px solid khaki"> (<a href="http://terminology.hl7.org/5.4.0/CodeSystem-condition-ver-status.html">ConditionVerificationStatus</a>#confirmed)</span></p><p><b>category</b>: Sensory functions and pain, unspecified <span style="background: LightGoldenRodYellow; margin: 4px; border: 1px solid khaki"> (<a href="http://terminology.hl7.org/5.0.0/CodeSystem-ICF.html">International Classification of Functioning, Disability and Health</a>#b299)</span>, Encounter Diagnosis <span style="background: LightGoldenRodYellow; margin: 4px; border: 1px solid khaki"> (<a href="http://hl7.org/fhir/us/core/STU6.1/CodeSystem-condition-category.html">US Core Condition Category Extension Codes</a>#encounter-diagnosis)</span>, Encounter Diagnosis <span style="background: LightGoldenRodYellow; margin: 4px; border: 1px solid khaki"> (<a href="http://terminology.hl7.org/5.4.0/CodeSystem-condition-category.html">Condition Category Codes</a>#encounter-diagnosis)</span></p><p><b>code</b>: Chronic painful neuropathy due to diabetes mellitus (disorder) <span style="background: LightGoldenRodYellow; margin: 4px; border: 1px solid khaki"> (<a href="https://browser.ihtsdotools.org/">SNOWMED CT</a>#193184006)</span></p><p><b>bodySite</b>: Both lower legs (body structure) <span style="background: LightGoldenRodYellow; margin: 4px; border: 1px solid khaki"> (<a href="https://browser.ihtsdotools.org/">SNOWMED CT</a>#40927001)</span></p><p><b>subject</b>: See on this page: Patient/Example-Smith-Johnson-Patient1</p><p><b>asserter</b>: See on this page: PractitionerRole/Role-IMMD-AnitaChu</p></div>
        </text>
        <extension url="http://hl7.org/fhir/StructureDefinition/condition-assertedDate">
          <valueDateTime value="2020-07"/>
        </extension>
        <clinicalStatus>
          <coding>
            <system value="http://terminology.hl7.org/CodeSystem/condition-clinical"/>
            <code value="active"/>
          </coding>
        </clinicalStatus>
        <verificationStatus>
          <coding>
            <system value="http://terminology.hl7.org/CodeSystem/condition-ver-status"/>
            <code value="confirmed"/>
          </coding>
        </verificationStatus>
        <category>
          <coding>
            <system value="http://hl7.org/fhir/sid/icf"/>
            <code value="b299"/>
            <display value="Sensory functions and pain, unspecified"/>
          </coding>
        </category>
        <category>
          <coding>
            <system value="http://hl7.org/fhir/us/core/CodeSystem/condition-category"/>
            <code value="encounter-diagnosis"/>
            <display value="Encounter Diagnosis"/>
          </coding>
        </category>
        <category>
          <coding>
            <system value="http://terminology.hl7.org/CodeSystem/condition-category"/>
            <code value="encounter-diagnosis"/>
          </coding>
        </category>
        <code>
          <coding>
            <system value="http://snomed.info/sct"/>
            <code value="193184006"/>
            <display value="Chronic painful neuropathy due to diabetes mellitus (disorder)"/>
          </coding>
        </code>
        <bodySite>
          <coding>
            <system value="http://snomed.info/sct"/>
            <code value="40927001"/>
            <display value="Both lower legs (body structure)"/>
          </coding>
        </bodySite>
        <subject>
          <reference value="Patient/Example-Smith-Johnson-Patient1"/>
        </subject>
        <asserter>
          <reference value="PractitionerRole/Role-IMMD-AnitaChu"/>
        </asserter>
      </Condition>
    </resource>
  </entry>
  <entry>
    <fullUrl value="http://www.example.org/fhir/Condition/BSJ-StrokeDiagnosis"/>
    <resource>
      <Condition>
        <id value="BSJ-StrokeDiagnosis"/>
        <meta>
          <profile value="http://hl7.org/fhir/us/core/StructureDefinition/us-core-condition-encounter-diagnosis"/>
        </meta>
        <text>
          <status value="extensions"/><div xmlns="http://www.w3.org/1999/xhtml"><a name="Condition_BSJ-StrokeDiagnosis"> </a><p><b>Generated Narrative: Condition</b><a name="BSJ-StrokeDiagnosis"> </a><a name="hcBSJ-StrokeDiagnosis"> </a></p><div style="display: inline-block; background-color: #d9e0e7; padding: 6px; margin: 4px; border: 1px solid #8da1b4; border-radius: 5px; line-height: 60%"><p style="margin-bottom: 0px">ResourceCondition &quot;BSJ-StrokeDiagnosis&quot; </p><p style="margin-bottom: 0px">Profile: <a href="http://hl7.org/fhir/us/core/STU6.1/StructureDefinition-us-core-condition-encounter-diagnosis.html">US Core Condition Encounter Diagnosis Profile</a></p></div><p><b>Condition Asserted Date</b>: 2024-04-17 15:40:00-0400</p><p><b>clinicalStatus</b>: Active <span style="background: LightGoldenRodYellow; margin: 4px; border: 1px solid khaki"> (<a href="http://terminology.hl7.org/5.4.0/CodeSystem-condition-clinical.html">Condition Clinical Status Codes</a>#active)</span></p><p><b>verificationStatus</b>: Confirmed <span style="background: LightGoldenRodYellow; margin: 4px; border: 1px solid khaki"> (<a href="http://terminology.hl7.org/5.4.0/CodeSystem-condition-ver-status.html">ConditionVerificationStatus</a>#confirmed)</span></p><p><b>category</b>: Structure of cortical lobes, unspecified <span style="background: LightGoldenRodYellow; margin: 4px; border: 1px solid khaki"> (<a href="http://terminology.hl7.org/5.0.0/CodeSystem-ICF.html">International Classification of Functioning, Disability and Health</a>#s11009)</span>, Encounter Diagnosis <span style="background: LightGoldenRodYellow; margin: 4px; border: 1px solid khaki"> (<a href="http://hl7.org/fhir/us/core/STU6.1/CodeSystem-condition-category.html">US Core Condition Category Extension Codes</a>#encounter-diagnosis)</span>, Encounter Diagnosis <span style="background: LightGoldenRodYellow; margin: 4px; border: 1px solid khaki"> (<a href="http://terminology.hl7.org/5.4.0/CodeSystem-condition-category.html">Condition Category Codes</a>#encounter-diagnosis)</span></p><p><b>code</b>: Ischemic Stroke (disorder) <span style="background: LightGoldenRodYellow; margin: 4px; border: 1px solid khaki"> (<a href="https://browser.ihtsdotools.org/">SNOWMED CT</a>#422504002)</span></p><p><b>bodySite</b>: Structure of middle cerebral artery M1 segment (body structure) <span style="background: LightGoldenRodYellow; margin: 4px; border: 1px solid khaki"> (<a href="https://browser.ihtsdotools.org/">SNOWMED CT</a>#414722000)</span>, Left <span style="background: LightGoldenRodYellow; margin: 4px; border: 1px solid khaki"> (<a href="https://browser.ihtsdotools.org/">SNOWMED CT</a>#7771000)</span></p><p><b>subject</b>: See on this page: Patient/Example-Smith-Johnson-Patient1</p><p><b>onset</b>: 2024-04-17 15:40:00-0400</p><p><b>recordedDate</b>: 2023-12-15 18:40:00-0400</p><p><b>asserter</b>: See on this page: PractitionerRole/Role-Neuro-NuraMekel</p><p><b>note</b>: Partial occlusion of MCA. Stroke event witnessed. EMS response / patient arrived within 45 minutes of symptom onset. Verified by CT with contrast. tPA administered within 2 hours of symptom onset.</p></div>
        </text>
        <extension url="http://hl7.org/fhir/StructureDefinition/condition-assertedDate">
          <valueDateTime value="2024-04-17T15:40:00-04:00"/>
        </extension>
        <clinicalStatus>
          <coding>
            <system value="http://terminology.hl7.org/CodeSystem/condition-clinical"/>
            <code value="active"/>
          </coding>
        </clinicalStatus>
        <verificationStatus>
          <coding>
            <system value="http://terminology.hl7.org/CodeSystem/condition-ver-status"/>
            <code value="confirmed"/>
          </coding>
        </verificationStatus>
        <category>
          <coding>
            <system value="http://hl7.org/fhir/sid/icf"/>
            <code value="s11009"/>
            <display value="Structure of cortical lobes, unspecified"/>
          </coding>
        </category>
        <category>
          <coding>
            <system value="http://hl7.org/fhir/us/core/CodeSystem/condition-category"/>
            <code value="encounter-diagnosis"/>
            <display value="Encounter Diagnosis"/>
          </coding>
        </category>
        <category>
          <coding>
            <system value="http://terminology.hl7.org/CodeSystem/condition-category"/>
            <code value="encounter-diagnosis"/>
          </coding>
        </category>
        <code>
          <coding>
            <system value="http://snomed.info/sct"/>
            <code value="422504002"/>
            <display value="Ischemic Stroke (disorder)"/>
          </coding>
        </code>
        <bodySite>
          <coding>
            <system value="http://snomed.info/sct"/>
            <code value="414722000"/>
            <display value="Structure of middle cerebral artery M1 segment (body structure)"/>
          </coding>
        </bodySite>
        <bodySite>
          <coding>
            <system value="http://snomed.info/sct"/>
            <code value="7771000"/>
            <display value="Left"/>
          </coding>
        </bodySite>
        <subject>
          <reference value="Patient/Example-Smith-Johnson-Patient1"/>
        </subject>
        <onsetDateTime value="2024-04-17T15:40:00-04:00"/>
        <recordedDate value="2023-12-15T18:40:00-04:00"/>
        <asserter>
          <reference value="PractitionerRole/Role-Neuro-NuraMekel"/>
        </asserter>
        <note>
          <text value="Partial occlusion of MCA. Stroke event witnessed. EMS response / patient arrived within 45 minutes of symptom onset. Verified by CT with contrast. tPA administered within 2 hours of symptom onset."/>
        </note>
      </Condition>
    </resource>
  </entry>
  <entry>
    <fullUrl value="http://www.example.org/fhir/Condition/BSJ-UndressingConcern"/>
    <resource>
      <Condition>
        <id value="BSJ-UndressingConcern"/>
        <meta>
          <profile value="http://hl7.org/fhir/us/core/StructureDefinition/us-core-condition-problems-health-concerns"/>
        </meta>
        <text>
          <status value="generated"/><div xmlns="http://www.w3.org/1999/xhtml"><a name="Condition_BSJ-UndressingConcern"> </a><p><b>Generated Narrative: Condition</b><a name="BSJ-UndressingConcern"> </a><a name="hcBSJ-UndressingConcern"> </a></p><div style="display: inline-block; background-color: #d9e0e7; padding: 6px; margin: 4px; border: 1px solid #8da1b4; border-radius: 5px; line-height: 60%"><p style="margin-bottom: 0px">ResourceCondition &quot;BSJ-UndressingConcern&quot; </p><p style="margin-bottom: 0px">Profile: <a href="http://hl7.org/fhir/us/core/STU6.1/StructureDefinition-us-core-condition-problems-health-concerns.html">US Core Condition Problems and Health Concerns Profile</a></p></div><p><b>clinicalStatus</b>: Active <span style="background: LightGoldenRodYellow; margin: 4px; border: 1px solid khaki"> (<a href="http://terminology.hl7.org/5.4.0/CodeSystem-condition-clinical.html">Condition Clinical Status Codes</a>#active)</span></p><p><b>verificationStatus</b>: Confirmed <span style="background: LightGoldenRodYellow; margin: 4px; border: 1px solid khaki"> (<a href="http://terminology.hl7.org/5.4.0/CodeSystem-condition-ver-status.html">ConditionVerificationStatus</a>#confirmed)</span></p><p><b>category</b>: Coordination of voluntary movements <span style="background: LightGoldenRodYellow; margin: 4px; border: 1px solid khaki"> (<a href="http://terminology.hl7.org/5.0.0/CodeSystem-ICF.html">International Classification of Functioning, Disability and Health</a>#b7602)</span>, Health Concern <span style="background: LightGoldenRodYellow; margin: 4px; border: 1px solid khaki"> (<a href="http://hl7.org/fhir/us/core/STU6.1/CodeSystem-condition-category.html">US Core Condition Category Extension Codes</a>#health-concern)</span>, Functional Status <span style="background: LightGoldenRodYellow; margin: 4px; border: 1px solid khaki"> (<a href="http://hl7.org/fhir/us/core/STU6.1/CodeSystem-us-core-category.html">US Core Category</a>#functional-status)</span></p><p><b>code</b>: Difficulty undressing (finding) <span style="background: LightGoldenRodYellow; margin: 4px; border: 1px solid khaki"> (<a href="https://browser.ihtsdotools.org/">SNOWMED CT</a>#284989005)</span></p><p><b>subject</b>: See on this page: Patient/Example-Smith-Johnson-Patient1</p><p><b>recordedDate</b>: 2024-04-27 15:40:00-0400</p><p><b>asserter</b>: See on this page: PractitionerRole/Role-OT-JenCadbury</p><p><b>note</b>: Betsy is frustrated, embarrassed, and worried about not being able to undress herself</p></div>
        </text>
        <clinicalStatus>
          <coding>
            <system value="http://terminology.hl7.org/CodeSystem/condition-clinical"/>
            <code value="active"/>
          </coding>
        </clinicalStatus>
        <verificationStatus>
          <coding>
            <system value="http://terminology.hl7.org/CodeSystem/condition-ver-status"/>
            <code value="confirmed"/>
          </coding>
        </verificationStatus>
        <category>
          <coding>
            <system value="http://hl7.org/fhir/sid/icf"/>
            <code value="b7602"/>
            <display value="Coordination of voluntary movements"/>
          </coding>
        </category>
        <category>
          <coding>
            <system value="http://hl7.org/fhir/us/core/CodeSystem/condition-category"/>
            <code value="health-concern"/>
            <display value="Health Concern"/>
          </coding>
        </category>
        <category>
          <coding>
            <system value="http://hl7.org/fhir/us/core/CodeSystem/us-core-category"/>
            <code value="functional-status"/>
            <display value="Functional Status"/>
          </coding>
        </category>
        <code>
          <coding>
            <system value="http://snomed.info/sct"/>
            <code value="284989005"/>
            <display value="Difficulty undressing (finding)"/>
          </coding>
        </code>
        <subject>
          <reference value="Patient/Example-Smith-Johnson-Patient1"/>
        </subject>
        <recordedDate value="2024-04-27T15:40:00-04:00"/>
        <asserter>
          <reference value="PractitionerRole/Role-OT-JenCadbury"/>
        </asserter>
        <note>
          <text value="Betsy is frustrated, embarrassed, and worried about not being able to undress herself"/>
        </note>
      </Condition>
    </resource>
  </entry>
  <entry>
    <fullUrl value="http://www.example.org/fhir/Condition/OT-ProblemList-Decondition"/>
    <resource>
      <Condition>
        <id value="OT-ProblemList-Decondition"/>
        <meta>
          <profile value="http://hl7.org/fhir/us/core/StructureDefinition/us-core-condition-problems-health-concerns"/>
        </meta>
        <text>
          <status value="extensions"/><div xmlns="http://www.w3.org/1999/xhtml"><a name="Condition_OT-ProblemList-Decondition"> </a><p><b>Generated Narrative: Condition</b><a name="OT-ProblemList-Decondition"> </a><a name="hcOT-ProblemList-Decondition"> </a></p><div style="display: inline-block; background-color: #d9e0e7; padding: 6px; margin: 4px; border: 1px solid #8da1b4; border-radius: 5px; line-height: 60%"><p style="margin-bottom: 0px">ResourceCondition &quot;OT-ProblemList-Decondition&quot; </p><p style="margin-bottom: 0px">Profile: <a href="http://hl7.org/fhir/us/core/STU6.1/StructureDefinition-us-core-condition-problems-health-concerns.html">US Core Condition Problems and Health Concerns Profile</a></p></div><p><b>Condition Asserted Date</b>: 2024-04-30 15:40:00-0400</p><p><b>clinicalStatus</b>: Active <span style="background: LightGoldenRodYellow; margin: 4px; border: 1px solid khaki"> (<a href="http://terminology.hl7.org/5.4.0/CodeSystem-condition-clinical.html">Condition Clinical Status Codes</a>#active)</span></p><p><b>verificationStatus</b>: Confirmed <span style="background: LightGoldenRodYellow; margin: 4px; border: 1px solid khaki"> (<a href="http://terminology.hl7.org/5.4.0/CodeSystem-condition-ver-status.html">ConditionVerificationStatus</a>#confirmed)</span></p><p><b>category</b>: Power of muscles in lower half of the body <span style="background: LightGoldenRodYellow; margin: 4px; border: 1px solid khaki"> (<a href="http://terminology.hl7.org/5.0.0/CodeSystem-ICF.html">International Classification of Functioning, Disability and Health</a>#b7303)</span>, Problem List Item <span style="background: LightGoldenRodYellow; margin: 4px; border: 1px solid khaki"> (<a href="http://hl7.org/fhir/us/core/STU6.1/CodeSystem-condition-category.html">US Core Condition Category Extension Codes</a>#problem-list-item)</span>, Functional Status <span style="background: LightGoldenRodYellow; margin: 4px; border: 1px solid khaki"> (<a href="http://hl7.org/fhir/us/core/STU6.1/CodeSystem-us-core-category.html">US Core Category</a>#functional-status)</span></p><p><b>code</b>: Physical deconditioning (finding) <span style="background: LightGoldenRodYellow; margin: 4px; border: 1px solid khaki"> (<a href="https://browser.ihtsdotools.org/">SNOWMED CT</a>#31031000119102)</span></p><p><b>bodySite</b>: Entire lower body (body structure) <span style="background: LightGoldenRodYellow; margin: 4px; border: 1px solid khaki"> (<a href="https://browser.ihtsdotools.org/">SNOWMED CT</a>#362875007)</span></p><p><b>subject</b>: See on this page: Patient/Example-Smith-Johnson-Patient1</p><p><b>onset</b>: 2024-04-26 15:40:00-0400</p><p><b>recordedDate</b>: 2024-04-30 15:40:00-0400</p><p><b>asserter</b>: See on this page: PractitionerRole/Role-OT-JenCadbury</p><blockquote><p><b>evidence</b></p><p><b>detail</b>: See on this page: Observation/BSJ-MDS-ShortWalk1</p></blockquote><blockquote><p><b>evidence</b></p><p><b>detail</b>: See on this page: Observation/BSJ-MDS-SitStand1</p></blockquote><blockquote><p><b>evidence</b></p><p><b>detail</b>: See on this page: Observation/BSJ-MDS-SitUp1</p></blockquote><p><b>note</b>: The weakness in the patient's lower extremities is secondary to deconditioning. According to the report from Neurology, patient did not have motor or sensory deficits below upper chest. High rehab potential.</p></div>
        </text>
        <extension url="http://hl7.org/fhir/StructureDefinition/condition-assertedDate">
          <valueDateTime value="2024-04-30T15:40:00-04:00"/>
        </extension>
        <clinicalStatus>
          <coding>
            <system value="http://terminology.hl7.org/CodeSystem/condition-clinical"/>
            <code value="active"/>
          </coding>
        </clinicalStatus>
        <verificationStatus>
          <coding>
            <system value="http://terminology.hl7.org/CodeSystem/condition-ver-status"/>
            <code value="confirmed"/>
          </coding>
        </verificationStatus>
        <category>
          <coding>
            <system value="http://hl7.org/fhir/sid/icf"/>
            <code value="b7303"/>
            <display value="Power of muscles in lower half of the body"/>
          </coding>
        </category>
        <category>
          <coding>
            <system value="http://hl7.org/fhir/us/core/CodeSystem/condition-category"/>
            <code value="problem-list-item"/>
            <display value="Problem List Item"/>
          </coding>
        </category>
        <category>
          <coding>
            <system value="http://hl7.org/fhir/us/core/CodeSystem/us-core-category"/>
            <code value="functional-status"/>
            <display value="Functional Status"/>
          </coding>
        </category>
        <code>
          <coding>
            <system value="http://snomed.info/sct"/>
            <code value="31031000119102"/>
            <display value="Physical deconditioning (finding)"/>
          </coding>
        </code>
        <bodySite>
          <coding>
            <system value="http://snomed.info/sct"/>
            <code value="362875007"/>
            <display value="Entire lower body (body structure)"/>
          </coding>
        </bodySite>
        <subject>
          <reference value="Patient/Example-Smith-Johnson-Patient1"/>
        </subject>
        <onsetDateTime value="2024-04-26T15:40:00-04:00"/>
        <recordedDate value="2024-04-30T15:40:00-04:00"/>
        <asserter>
          <reference value="PractitionerRole/Role-OT-JenCadbury"/>
        </asserter>
        <evidence>
          <detail>
            <reference value="Observation/BSJ-MDS-ShortWalk1"/>
          </detail>
        </evidence>
        <evidence>
          <detail>
            <reference value="Observation/BSJ-MDS-SitStand1"/>
          </detail>
        </evidence>
        <evidence>
          <detail>
            <reference value="Observation/BSJ-MDS-SitUp1"/>
          </detail>
        </evidence>
        <note>
          <text value="The weakness in the patient's lower extremities is secondary to deconditioning. According to the report from Neurology, patient did not have motor or sensory deficits below upper chest. High rehab potential."/>
        </note>
      </Condition>
    </resource>
  </entry>
  <entry>
    <fullUrl value="http://www.example.org/fhir/Condition/OT-ProblemList-RightWeak"/>
    <resource>
      <Condition>
        <id value="OT-ProblemList-RightWeak"/>
        <meta>
          <profile value="http://hl7.org/fhir/us/core/StructureDefinition/us-core-condition-problems-health-concerns"/>
        </meta>
        <text>
          <status value="extensions"/><div xmlns="http://www.w3.org/1999/xhtml"><a name="Condition_OT-ProblemList-RightWeak"> </a><p><b>Generated Narrative: Condition</b><a name="OT-ProblemList-RightWeak"> </a><a name="hcOT-ProblemList-RightWeak"> </a></p><div style="display: inline-block; background-color: #d9e0e7; padding: 6px; margin: 4px; border: 1px solid #8da1b4; border-radius: 5px; line-height: 60%"><p style="margin-bottom: 0px">ResourceCondition &quot;OT-ProblemList-RightWeak&quot; </p><p style="margin-bottom: 0px">Profile: <a href="http://hl7.org/fhir/us/core/STU6.1/StructureDefinition-us-core-condition-problems-health-concerns.html">US Core Condition Problems and Health Concerns Profile</a></p></div><p><b>Condition Asserted Date</b>: 2024-04-17 15:40:00-0400</p><p><b>clinicalStatus</b>: Active <span style="background: LightGoldenRodYellow; margin: 4px; border: 1px solid khaki"> (<a href="http://terminology.hl7.org/5.4.0/CodeSystem-condition-clinical.html">Condition Clinical Status Codes</a>#active)</span></p><p><b>verificationStatus</b>: Confirmed <span style="background: LightGoldenRodYellow; margin: 4px; border: 1px solid khaki"> (<a href="http://terminology.hl7.org/5.4.0/CodeSystem-condition-ver-status.html">ConditionVerificationStatus</a>#confirmed)</span></p><p><b>category</b>: Power of muscles of one limb <span style="background: LightGoldenRodYellow; margin: 4px; border: 1px solid khaki"> (<a href="http://terminology.hl7.org/5.0.0/CodeSystem-ICF.html">International Classification of Functioning, Disability and Health</a>#b7301)</span>, Problem List Item <span style="background: LightGoldenRodYellow; margin: 4px; border: 1px solid khaki"> (<a href="http://hl7.org/fhir/us/core/STU6.1/CodeSystem-condition-category.html">US Core Condition Category Extension Codes</a>#problem-list-item)</span>, Functional Status <span style="background: LightGoldenRodYellow; margin: 4px; border: 1px solid khaki"> (<a href="http://hl7.org/fhir/us/core/STU6.1/CodeSystem-us-core-category.html">US Core Category</a>#functional-status)</span></p><p><b>code</b>: Weakness of right upper limb (finding) <span style="background: LightGoldenRodYellow; margin: 4px; border: 1px solid khaki"> (<a href="https://browser.ihtsdotools.org/">SNOWMED CT</a>#570961000124101)</span></p><p><b>bodySite</b>: Right upper arm structure (body structure) <span style="background: LightGoldenRodYellow; margin: 4px; border: 1px solid khaki"> (<a href="https://browser.ihtsdotools.org/">SNOWMED CT</a>#368209003)</span></p><p><b>subject</b>: See on this page: Patient/Example-Smith-Johnson-Patient1</p><p><b>recordedDate</b>: 2024-04-27 15:40:00-0400</p><p><b>asserter</b>: See on this page: PractitionerRole/Role-OT-JenCadbury</p><h3>Evidences</h3><table class="grid"><tr><td style="display: none">-</td><td><b>Detail</b></td></tr><tr><td style="display: none">*</td><td>See on this page: Condition/BSJ-HemiparesisDiagnosis</td></tr></table><p><b>note</b>: The weakness and lack of coordination in the patient's right shoulder, arm, and hand are secondary to the stroke. PT/OT from SNF report improvements to rotator cuff strength over last month.</p></div>
        </text>
        <extension url="http://hl7.org/fhir/StructureDefinition/condition-assertedDate">
          <valueDateTime value="2024-04-17T15:40:00-04:00"/>
        </extension>
        <clinicalStatus>
          <coding>
            <system value="http://terminology.hl7.org/CodeSystem/condition-clinical"/>
            <code value="active"/>
          </coding>
        </clinicalStatus>
        <verificationStatus>
          <coding>
            <system value="http://terminology.hl7.org/CodeSystem/condition-ver-status"/>
            <code value="confirmed"/>
          </coding>
        </verificationStatus>
        <category>
          <coding>
            <system value="http://hl7.org/fhir/sid/icf"/>
            <code value="b7301"/>
            <display value="Power of muscles of one limb"/>
          </coding>
        </category>
        <category>
          <coding>
            <system value="http://hl7.org/fhir/us/core/CodeSystem/condition-category"/>
            <code value="problem-list-item"/>
            <display value="Problem List Item"/>
          </coding>
        </category>
        <category>
          <coding>
            <system value="http://hl7.org/fhir/us/core/CodeSystem/us-core-category"/>
            <code value="functional-status"/>
            <display value="Functional Status"/>
          </coding>
        </category>
        <code>
          <coding>
            <system value="http://snomed.info/sct"/>
            <code value="570961000124101"/>
            <display value="Weakness of right upper limb (finding)"/>
          </coding>
        </code>
        <bodySite>
          <coding>
            <system value="http://snomed.info/sct"/>
            <code value="368209003"/>
            <display value="Right upper arm structure (body structure)"/>
          </coding>
        </bodySite>
        <subject>
          <reference value="Patient/Example-Smith-Johnson-Patient1"/>
        </subject>
        <recordedDate value="2024-04-27T15:40:00-04:00"/>
        <asserter>
          <reference value="PractitionerRole/Role-OT-JenCadbury"/>
        </asserter>
        <evidence>
          <detail>
            <reference value="Condition/BSJ-HemiparesisDiagnosis"/>
          </detail>
        </evidence>
        <note>
          <text value="The weakness and lack of coordination in the patient's right shoulder, arm, and hand are secondary to the stroke. PT/OT from SNF report improvements to rotator cuff strength over last month."/>
        </note>
      </Condition>
    </resource>
  </entry>
  <entry>
    <fullUrl value="http://www.example.org/fhir/Observation/BSJ-MDS-Activities-PT1"/>
    <resource>
      <Observation>
        <id value="BSJ-MDS-Activities-PT1"/>
        <meta>
          <profile value="http://hl7.org/fhir/us/pacio-pfe/StructureDefinition/pfe-collection"/>
        </meta>
        <text>
          <status value="extensions"/><div xmlns="http://www.w3.org/1999/xhtml"><a name="Observation_BSJ-MDS-Activities-PT1"> </a><p><b>Generated Narrative: Observation</b><a name="BSJ-MDS-Activities-PT1"> </a><a name="hcBSJ-MDS-Activities-PT1"> </a></p><div style="display: inline-block; background-color: #d9e0e7; padding: 6px; margin: 4px; border: 1px solid #8da1b4; border-radius: 5px; line-height: 60%"><p style="margin-bottom: 0px">ResourceObservation &quot;BSJ-MDS-Activities-PT1&quot; </p><p style="margin-bottom: 0px">Profile: <a href="http://hl7.org/fhir/us/pacio-pfe/STU1/StructureDefinition-pfe-collection.html">Personal Functioning and Engagement Collection</a></p></div><p><b>Event Location</b>: See on this page: Location/org-Loc-SNF-Happy-Nursing-Facility</p><p><b>status</b>: final</p><p><b>category</b>: Self-care <span style="background: LightGoldenRodYellow; margin: 4px; border: 1px solid khaki"> (<a href="http://hl7.org/fhir/us/pacio-pfe/STU1/CodeSystem-pfe-category-cs.html">Personal Functioning and Engagement Category</a>#blockl2-d51)</span>, Survey <span style="background: LightGoldenRodYellow; margin: 4px; border: 1px solid khaki"> (<a href="http://terminology.hl7.org/5.4.0/CodeSystem-observation-category.html">Observation Category Codes</a>#survey)</span>, Functioning <span style="background: LightGoldenRodYellow; margin: 4px; border: 1px solid khaki"> (<a href="http://hl7.org/fhir/us/pacio-pfe/STU1/CodeSystem-pfe-functioning-cs.html">Personal Functioning and Engagement Functioning Category Code System</a>#functioning)</span></p><p><b>code</b>: MDS v3.0 - RAI v1.18.11 - Nursing home discharge (ND) item set during assessment period [CMS Assessment] <span style="background: LightGoldenRodYellow; margin: 4px; border: 1px solid khaki"> (<a href="https://loinc.org/">LOINC</a>#101107-1)</span></p><p><b>subject</b>: See on this page: Patient/Example-Smith-Johnson-Patient1</p><p><b>effective</b>: 2024-05-16 14:30:00-0400</p><p><b>performer</b>: See on this page: PractitionerRole/Role-OT-JenCadbury</p><p><b>hasMember</b>: </p><ul><li>See on this page: Observation/BSJ-MDS-Donning1</li><li>See on this page: Observation/BSJ-MDS-Doffing1</li></ul></div>
        </text>
        <extension url="http://hl7.org/fhir/StructureDefinition/event-location">
          <valueReference>
            <reference value="Location/org-Loc-SNF-Happy-Nursing-Facility"/>
          </valueReference>
        </extension>
        <status value="final"/>
        <category>
          <coding>
            <system value="http://hl7.org/fhir/us/pacio-pfe/CodeSystem/pfe-category-cs"/>
            <code value="blockl2-d51"/>
            <display value="Self-care"/>
          </coding>
        </category>
        <category>
          <coding>
            <system value="http://terminology.hl7.org/CodeSystem/observation-category"/>
            <code value="survey"/>
          </coding>
        </category>
        <category>
          <coding>
            <system value="http://hl7.org/fhir/us/pacio-pfe/CodeSystem/pfe-functioning-cs"/>
            <code value="functioning"/>
            <display value="Functioning"/>
          </coding>
        </category>
        <code>
          <coding>
            <system value="http://loinc.org"/>
            <code value="101107-1"/>
            <display value="MDS v3.0 - RAI v1.18.11 - Nursing home discharge (ND) item set during assessment period [CMS Assessment]"/>
          </coding>
        </code>
        <subject>
          <reference value="Patient/Example-Smith-Johnson-Patient1"/>
        </subject>
        <effectiveDateTime value="2024-05-16T14:30:00-04:00"/>
        <performer>
          <reference value="PractitionerRole/Role-OT-JenCadbury"/>
        </performer>
        <hasMember>
          <reference value="Observation/BSJ-MDS-Donning1"/>
        </hasMember>
        <hasMember>
          <reference value="Observation/BSJ-MDS-Doffing1"/>
        </hasMember>
      </Observation>
    </resource>
  </entry>
  <entry>
    <fullUrl value="http://www.example.org/fhir/Observation/BSJ-MDS-Doffing1"/>
    <resource>
      <Observation>
        <id value="BSJ-MDS-Doffing1"/>
        <meta>
          <profile value="http://hl7.org/fhir/us/pacio-pfe/StructureDefinition/pfe-observation-single"/>
        </meta>
        <text>
          <status value="extensions"/><div xmlns="http://www.w3.org/1999/xhtml"><a name="Observation_BSJ-MDS-Doffing1"> </a><p><b>Generated Narrative: Observation</b><a name="BSJ-MDS-Doffing1"> </a><a name="hcBSJ-MDS-Doffing1"> </a></p><div style="display: inline-block; background-color: #d9e0e7; padding: 6px; margin: 4px; border: 1px solid #8da1b4; border-radius: 5px; line-height: 60%"><p style="margin-bottom: 0px">ResourceObservation &quot;BSJ-MDS-Doffing1&quot; </p><p style="margin-bottom: 0px">Profile: <a href="http://hl7.org/fhir/us/pacio-pfe/STU1/StructureDefinition-pfe-observation-single.html">Personal Functioning and Engagement Single Observation</a></p></div><p><b>Event Location</b>: See on this page: Location/org-Loc-SNF-Happy-Nursing-Facility</p><p><b>status</b>: final</p><p><b>category</b>: Taking Off Clothes <span style="background: LightGoldenRodYellow; margin: 4px; border: 1px solid khaki"> (<a href="http://hl7.org/fhir/us/pacio-pfe/STU1/CodeSystem-pfe-category-cs.html">Personal Functioning and Engagement Category</a>#d5401)</span>, Survey <span style="background: LightGoldenRodYellow; margin: 4px; border: 1px solid khaki"> (<a href="http://terminology.hl7.org/5.4.0/CodeSystem-observation-category.html">Observation Category Codes</a>#survey)</span>, Functioning <span style="background: LightGoldenRodYellow; margin: 4px; border: 1px solid khaki"> (<a href="http://hl7.org/fhir/us/pacio-pfe/STU1/CodeSystem-pfe-functioning-cs.html">Personal Functioning and Engagement Functioning Category Code System</a>#functioning)</span></p><p><b>code</b>: Upper body dressing - functional goal during assessment period [CMS Assessment] <span style="background: LightGoldenRodYellow; margin: 4px; border: 1px solid khaki"> (<a href="https://loinc.org/">LOINC</a>#89387-5)</span></p><p><b>subject</b>: See on this page: Patient/Example-Smith-Johnson-Patient1</p><p><b>effective</b>: 2024-05-16 14:30:00-0400</p><p><b>performer</b>: See on this page: PractitionerRole/Role-OT-JenCadbury</p><p><b>value</b>: Dependent - Helper does all of the effort. Resident does none of the effort to complete the activity. Or, the assistance of 2 or more helpers is required for the resident to complete the activity. <span style="background: LightGoldenRodYellow; margin: 4px; border: 1px solid khaki"> (<a href="https://loinc.org/">LOINC</a>#LA27998-6)</span></p></div>
        </text>
        <extension url="http://hl7.org/fhir/StructureDefinition/event-location">
          <valueReference>
            <reference value="Location/org-Loc-SNF-Happy-Nursing-Facility"/>
          </valueReference>
        </extension>
        <status value="final"/>
        <category>
          <coding>
            <system value="http://hl7.org/fhir/us/pacio-pfe/CodeSystem/pfe-category-cs"/>
            <code value="d5401"/>
            <display value="Taking Off Clothes"/>
          </coding>
        </category>
        <category>
          <coding>
            <system value="http://terminology.hl7.org/CodeSystem/observation-category"/>
            <code value="survey"/>
          </coding>
        </category>
        <category>
          <coding>
            <system value="http://hl7.org/fhir/us/pacio-pfe/CodeSystem/pfe-functioning-cs"/>
            <code value="functioning"/>
            <display value="Functioning"/>
          </coding>
        </category>
        <code>
          <coding>
            <system value="http://loinc.org"/>
            <code value="89387-5"/>
            <display value="Upper body dressing - functional goal during assessment period [CMS Assessment]"/>
          </coding>
        </code>
        <subject>
          <reference value="Patient/Example-Smith-Johnson-Patient1"/>
        </subject>
        <effectiveDateTime value="2024-05-16T14:30:00-04:00"/>
        <performer>
          <reference value="PractitionerRole/Role-OT-JenCadbury"/>
        </performer>
        <valueCodeableConcept>
          <coding>
            <system value="http://loinc.org"/>
            <code value="LA27998-6"/>
            <display value="Dependent - Helper does all of the effort. Resident does none of the effort to complete the activity. Or, the assistance of 2 or more helpers is required for the resident to complete the activity."/>
          </coding>
        </valueCodeableConcept>
      </Observation>
    </resource>
  </entry>
  <entry>
    <fullUrl value="http://www.example.org/fhir/Observation/BSJ-MDS-Donning1"/>
    <resource>
      <Observation>
        <id value="BSJ-MDS-Donning1"/>
        <meta>
          <profile value="http://hl7.org/fhir/us/pacio-pfe/StructureDefinition/pfe-observation-single"/>
        </meta>
        <text>
          <status value="extensions"/><div xmlns="http://www.w3.org/1999/xhtml"><a name="Observation_BSJ-MDS-Donning1"> </a><p><b>Generated Narrative: Observation</b><a name="BSJ-MDS-Donning1"> </a><a name="hcBSJ-MDS-Donning1"> </a></p><div style="display: inline-block; background-color: #d9e0e7; padding: 6px; margin: 4px; border: 1px solid #8da1b4; border-radius: 5px; line-height: 60%"><p style="margin-bottom: 0px">ResourceObservation &quot;BSJ-MDS-Donning1&quot; </p><p style="margin-bottom: 0px">Profile: <a href="http://hl7.org/fhir/us/pacio-pfe/STU1/StructureDefinition-pfe-observation-single.html">Personal Functioning and Engagement Single Observation</a></p></div><p><b>Event Location</b>: See on this page: Location/org-Loc-SNF-Happy-Nursing-Facility</p><p><b>status</b>: final</p><p><b>category</b>: Putting On Clothes <span style="background: LightGoldenRodYellow; margin: 4px; border: 1px solid khaki"> (<a href="http://hl7.org/fhir/us/pacio-pfe/STU1/CodeSystem-pfe-category-cs.html">Personal Functioning and Engagement Category</a>#d5400)</span>, Survey <span style="background: LightGoldenRodYellow; margin: 4px; border: 1px solid khaki"> (<a href="http://terminology.hl7.org/5.4.0/CodeSystem-observation-category.html">Observation Category Codes</a>#survey)</span>, Functioning <span style="background: LightGoldenRodYellow; margin: 4px; border: 1px solid khaki"> (<a href="http://hl7.org/fhir/us/pacio-pfe/STU1/CodeSystem-pfe-functioning-cs.html">Personal Functioning and Engagement Functioning Category Code System</a>#functioning)</span></p><p><b>code</b>: Lower body dressing - functional goal during assessment period [CMS Assessment] <span style="background: LightGoldenRodYellow; margin: 4px; border: 1px solid khaki"> (<a href="https://loinc.org/">LOINC</a>#89406-3)</span></p><p><b>subject</b>: See on this page: Patient/Example-Smith-Johnson-Patient1</p><p><b>effective</b>: 2024-05-16 14:30:00-0400</p><p><b>performer</b>: See on this page: PractitionerRole/Role-OT-JenCadbury</p><p><b>value</b>: Dependent - Helper does all of the effort. Resident does none of the effort to complete the activity. Or, the assistance of 2 or more helpers is required for the resident to complete the activity. <span style="background: LightGoldenRodYellow; margin: 4px; border: 1px solid khaki"> (<a href="https://loinc.org/">LOINC</a>#LA27998-6)</span></p></div>
        </text>
        <extension url="http://hl7.org/fhir/StructureDefinition/event-location">
          <valueReference>
            <reference value="Location/org-Loc-SNF-Happy-Nursing-Facility"/>
          </valueReference>
        </extension>
        <status value="final"/>
        <category>
          <coding>
            <system value="http://hl7.org/fhir/us/pacio-pfe/CodeSystem/pfe-category-cs"/>
            <code value="d5400"/>
            <display value="Putting On Clothes"/>
          </coding>
        </category>
        <category>
          <coding>
            <system value="http://terminology.hl7.org/CodeSystem/observation-category"/>
            <code value="survey"/>
          </coding>
        </category>
        <category>
          <coding>
            <system value="http://hl7.org/fhir/us/pacio-pfe/CodeSystem/pfe-functioning-cs"/>
            <code value="functioning"/>
            <display value="Functioning"/>
          </coding>
        </category>
        <code>
          <coding>
            <system value="http://loinc.org"/>
            <code value="89406-3"/>
            <display value="Lower body dressing - functional goal during assessment period [CMS Assessment]"/>
          </coding>
        </code>
        <subject>
          <reference value="Patient/Example-Smith-Johnson-Patient1"/>
        </subject>
        <effectiveDateTime value="2024-05-16T14:30:00-04:00"/>
        <performer>
          <reference value="PractitionerRole/Role-OT-JenCadbury"/>
        </performer>
        <valueCodeableConcept>
          <coding>
            <system value="http://loinc.org"/>
            <code value="LA27998-6"/>
            <display value="Dependent - Helper does all of the effort. Resident does none of the effort to complete the activity. Or, the assistance of 2 or more helpers is required for the resident to complete the activity."/>
          </coding>
        </valueCodeableConcept>
      </Observation>
    </resource>
  </entry>
  <entry>
    <fullUrl value="http://www.example.org/fhir/Observation/BSJ-MDS-Mobility-PT1"/>
    <resource>
      <Observation>
        <id value="BSJ-MDS-Mobility-PT1"/>
        <meta>
          <profile value="http://hl7.org/fhir/us/pacio-pfe/StructureDefinition/pfe-collection"/>
        </meta>
        <text>
          <status value="extensions"/><div xmlns="http://www.w3.org/1999/xhtml"><a name="Observation_BSJ-MDS-Mobility-PT1"> </a><p><b>Generated Narrative: Observation</b><a name="BSJ-MDS-Mobility-PT1"> </a><a name="hcBSJ-MDS-Mobility-PT1"> </a></p><div style="display: inline-block; background-color: #d9e0e7; padding: 6px; margin: 4px; border: 1px solid #8da1b4; border-radius: 5px; line-height: 60%"><p style="margin-bottom: 0px">ResourceObservation &quot;BSJ-MDS-Mobility-PT1&quot; </p><p style="margin-bottom: 0px">Profile: <a href="http://hl7.org/fhir/us/pacio-pfe/STU1/StructureDefinition-pfe-collection.html">Personal Functioning and Engagement Collection</a></p></div><p><b>Event Location</b>: See on this page: Location/org-Loc-SNF-Happy-Nursing-Facility</p><p><b>status</b>: final</p><p><b>category</b>: Mobility <span style="background: LightGoldenRodYellow; margin: 4px; border: 1px solid khaki"> (<a href="http://hl7.org/fhir/us/pacio-pfe/STU1/CodeSystem-pfe-category-cs.html">Personal Functioning and Engagement Category</a>#blockl2-d41)</span>, Survey <span style="background: LightGoldenRodYellow; margin: 4px; border: 1px solid khaki"> (<a href="http://terminology.hl7.org/5.4.0/CodeSystem-observation-category.html">Observation Category Codes</a>#survey)</span>, Functioning <span style="background: LightGoldenRodYellow; margin: 4px; border: 1px solid khaki"> (<a href="http://hl7.org/fhir/us/pacio-pfe/STU1/CodeSystem-pfe-functioning-cs.html">Personal Functioning and Engagement Functioning Category Code System</a>#functioning)</span></p><p><b>code</b>: MDS v3.0 - RAI v1.18.11 - Nursing home discharge (ND) item set during assessment period [CMS Assessment] <span style="background: LightGoldenRodYellow; margin: 4px; border: 1px solid khaki"> (<a href="https://loinc.org/">LOINC</a>#101107-1)</span></p><p><b>subject</b>: See on this page: Patient/Example-Smith-Johnson-Patient1</p><p><b>effective</b>: 2024-05-16 14:30:00-0400</p><p><b>performer</b>: See on this page: PractitionerRole/Role-OT-JenCadbury</p><p><b>hasMember</b>: </p><ul><li>See on this page: Observation/BSJ-MDS-ShortWalk1</li><li>See on this page: Observation/BSJ-MDS-SitStand1</li><li>See on this page: Observation/BSJ-MDS-SitUp1</li></ul></div>
        </text>
        <extension url="http://hl7.org/fhir/StructureDefinition/event-location">
          <valueReference>
            <reference value="Location/org-Loc-SNF-Happy-Nursing-Facility"/>
          </valueReference>
        </extension>
        <status value="final"/>
        <category>
          <coding>
            <system value="http://hl7.org/fhir/us/pacio-pfe/CodeSystem/pfe-category-cs"/>
            <code value="blockl2-d41"/>
            <display value="Mobility"/>
          </coding>
        </category>
        <category>
          <coding>
            <system value="http://terminology.hl7.org/CodeSystem/observation-category"/>
            <code value="survey"/>
          </coding>
        </category>
        <category>
          <coding>
            <system value="http://hl7.org/fhir/us/pacio-pfe/CodeSystem/pfe-functioning-cs"/>
            <code value="functioning"/>
            <display value="Functioning"/>
          </coding>
        </category>
        <code>
          <coding>
            <system value="http://loinc.org"/>
            <code value="101107-1"/>
            <display value="MDS v3.0 - RAI v1.18.11 - Nursing home discharge (ND) item set during assessment period [CMS Assessment]"/>
          </coding>
        </code>
        <subject>
          <reference value="Patient/Example-Smith-Johnson-Patient1"/>
        </subject>
        <effectiveDateTime value="2024-05-16T14:30:00-04:00"/>
        <performer>
          <reference value="PractitionerRole/Role-OT-JenCadbury"/>
        </performer>
        <hasMember>
          <reference value="Observation/BSJ-MDS-ShortWalk1"/>
        </hasMember>
        <hasMember>
          <reference value="Observation/BSJ-MDS-SitStand1"/>
        </hasMember>
        <hasMember>
          <reference value="Observation/BSJ-MDS-SitUp1"/>
        </hasMember>
      </Observation>
    </resource>
  </entry>
  <entry>
    <fullUrl value="http://www.example.org/fhir/Observation/BSJ-MDS-ShortWalk1"/>
    <resource>
      <Observation>
        <id value="BSJ-MDS-ShortWalk1"/>
        <meta>
          <profile value="http://hl7.org/fhir/us/pacio-pfe/StructureDefinition/pfe-observation-single"/>
        </meta>
        <text>
          <status value="extensions"/><div xmlns="http://www.w3.org/1999/xhtml"><a name="Observation_BSJ-MDS-ShortWalk1"> </a><p><b>Generated Narrative: Observation</b><a name="BSJ-MDS-ShortWalk1"> </a><a name="hcBSJ-MDS-ShortWalk1"> </a></p><div style="display: inline-block; background-color: #d9e0e7; padding: 6px; margin: 4px; border: 1px solid #8da1b4; border-radius: 5px; line-height: 60%"><p style="margin-bottom: 0px">ResourceObservation &quot;BSJ-MDS-ShortWalk1&quot; </p><p style="margin-bottom: 0px">Profile: <a href="http://hl7.org/fhir/us/pacio-pfe/STU1/StructureDefinition-pfe-observation-single.html">Personal Functioning and Engagement Single Observation</a></p></div><p><b>Event Location</b>: See on this page: Location/org-Loc-SNF-Happy-Nursing-Facility</p><p><b>status</b>: final</p><p><b>category</b>: Moving Around Within the Home <span style="background: LightGoldenRodYellow; margin: 4px; border: 1px solid khaki"> (<a href="http://hl7.org/fhir/us/pacio-pfe/STU1/CodeSystem-pfe-category-cs.html">Personal Functioning and Engagement Category</a>#d4600)</span>, Survey <span style="background: LightGoldenRodYellow; margin: 4px; border: 1px solid khaki"> (<a href="http://terminology.hl7.org/5.4.0/CodeSystem-observation-category.html">Observation Category Codes</a>#survey)</span>, Functioning <span style="background: LightGoldenRodYellow; margin: 4px; border: 1px solid khaki"> (<a href="http://hl7.org/fhir/us/pacio-pfe/STU1/CodeSystem-pfe-functioning-cs.html">Personal Functioning and Engagement Functioning Category Code System</a>#functioning)</span></p><p><b>code</b>: Walk 50 feet with two turns - functional goal during assessment period [CMS Assessment] <span style="background: LightGoldenRodYellow; margin: 4px; border: 1px solid khaki"> (<a href="https://loinc.org/">LOINC</a>#89381-8)</span></p><p><b>subject</b>: See on this page: Patient/Example-Smith-Johnson-Patient1</p><p><b>effective</b>: 2024-05-16 14:30:00-0400</p><p><b>performer</b>: See on this page: PractitionerRole/Role-OT-JenCadbury</p><p><b>value</b>: Partial/moderate assistance - helper does less than half the effort. Helper lifts, holds or supports trunk or limbs, but provides less than half the effort. <span style="background: LightGoldenRodYellow; margin: 4px; border: 1px solid khaki"> (<a href="https://loinc.org/">LOINC</a>#LA10055-4)</span></p></div>
        </text>
        <extension url="http://hl7.org/fhir/StructureDefinition/event-location">
          <valueReference>
            <reference value="Location/org-Loc-SNF-Happy-Nursing-Facility"/>
          </valueReference>
        </extension>
        <status value="final"/>
        <category>
          <coding>
            <system value="http://hl7.org/fhir/us/pacio-pfe/CodeSystem/pfe-category-cs"/>
            <code value="d4600"/>
            <display value="Moving Around Within the Home"/>
          </coding>
        </category>
        <category>
          <coding>
            <system value="http://terminology.hl7.org/CodeSystem/observation-category"/>
            <code value="survey"/>
          </coding>
        </category>
        <category>
          <coding>
            <system value="http://hl7.org/fhir/us/pacio-pfe/CodeSystem/pfe-functioning-cs"/>
            <code value="functioning"/>
            <display value="Functioning"/>
          </coding>
        </category>
        <code>
          <coding>
            <system value="http://loinc.org"/>
            <code value="89381-8"/>
            <display value="Walk 50 feet with two turns - functional goal during assessment period [CMS Assessment]"/>
          </coding>
        </code>
        <subject>
          <reference value="Patient/Example-Smith-Johnson-Patient1"/>
        </subject>
        <effectiveDateTime value="2024-05-16T14:30:00-04:00"/>
        <performer>
          <reference value="PractitionerRole/Role-OT-JenCadbury"/>
        </performer>
        <valueCodeableConcept>
          <coding>
            <system value="http://loinc.org"/>
            <code value="LA10055-4"/>
            <display value="Partial/moderate assistance - helper does less than half the effort. Helper lifts, holds or supports trunk or limbs, but provides less than half the effort."/>
          </coding>
        </valueCodeableConcept>
      </Observation>
    </resource>
  </entry>
  <entry>
    <fullUrl value="http://www.example.org/fhir/Observation/BSJ-MDS-SitStand1"/>
    <resource>
      <Observation>
        <id value="BSJ-MDS-SitStand1"/>
        <meta>
          <profile value="http://hl7.org/fhir/us/pacio-pfe/StructureDefinition/pfe-observation-single"/>
        </meta>
        <text>
          <status value="extensions"/><div xmlns="http://www.w3.org/1999/xhtml"><a name="Observation_BSJ-MDS-SitStand1"> </a><p><b>Generated Narrative: Observation</b><a name="BSJ-MDS-SitStand1"> </a><a name="hcBSJ-MDS-SitStand1"> </a></p><div style="display: inline-block; background-color: #d9e0e7; padding: 6px; margin: 4px; border: 1px solid #8da1b4; border-radius: 5px; line-height: 60%"><p style="margin-bottom: 0px">ResourceObservation &quot;BSJ-MDS-SitStand1&quot; </p><p style="margin-bottom: 0px">Profile: <a href="http://hl7.org/fhir/us/pacio-pfe/STU1/StructureDefinition-pfe-observation-single.html">Personal Functioning and Engagement Single Observation</a></p></div><p><b>Event Location</b>: See on this page: Location/org-Loc-SNF-Happy-Nursing-Facility</p><p><b>status</b>: final</p><p><b>category</b>: Standing <span style="background: LightGoldenRodYellow; margin: 4px; border: 1px solid khaki"> (<a href="http://hl7.org/fhir/us/pacio-pfe/STU1/CodeSystem-pfe-category-cs.html">Personal Functioning and Engagement Category</a>#d4014)</span>, Survey <span style="background: LightGoldenRodYellow; margin: 4px; border: 1px solid khaki"> (<a href="http://terminology.hl7.org/5.4.0/CodeSystem-observation-category.html">Observation Category Codes</a>#survey)</span>, Functioning <span style="background: LightGoldenRodYellow; margin: 4px; border: 1px solid khaki"> (<a href="http://hl7.org/fhir/us/pacio-pfe/STU1/CodeSystem-pfe-functioning-cs.html">Personal Functioning and Engagement Functioning Category Code System</a>#functioning)</span></p><p><b>code</b>: Sit to stand - functional goal during assessment period [CMS Assessment] <span style="background: LightGoldenRodYellow; margin: 4px; border: 1px solid khaki"> (<a href="https://loinc.org/">LOINC</a>#89392-5)</span></p><p><b>subject</b>: See on this page: Patient/Example-Smith-Johnson-Patient1</p><p><b>effective</b>: 2024-05-16 14:30:00-0400</p><p><b>performer</b>: See on this page: PractitionerRole/Role-OT-JenCadbury</p><p><b>value</b>: Substantial/maximal assistance - Helper does more than half the effort. Helper lifts or holds trunk or limbs and provides more than half the effort. <span style="background: LightGoldenRodYellow; margin: 4px; border: 1px solid khaki"> (<a href="https://loinc.org/">LOINC</a>#LA11759-0)</span></p></div>
        </text>
        <extension url="http://hl7.org/fhir/StructureDefinition/event-location">
          <valueReference>
            <reference value="Location/org-Loc-SNF-Happy-Nursing-Facility"/>
          </valueReference>
        </extension>
        <status value="final"/>
        <category>
          <coding>
            <system value="http://hl7.org/fhir/us/pacio-pfe/CodeSystem/pfe-category-cs"/>
            <code value="d4014"/>
            <display value="Standing"/>
          </coding>
        </category>
        <category>
          <coding>
            <system value="http://terminology.hl7.org/CodeSystem/observation-category"/>
            <code value="survey"/>
          </coding>
        </category>
        <category>
          <coding>
            <system value="http://hl7.org/fhir/us/pacio-pfe/CodeSystem/pfe-functioning-cs"/>
            <code value="functioning"/>
            <display value="Functioning"/>
          </coding>
        </category>
        <code>
          <coding>
            <system value="http://loinc.org"/>
            <code value="89392-5"/>
            <display value="Sit to stand - functional goal during assessment period [CMS Assessment]"/>
          </coding>
        </code>
        <subject>
          <reference value="Patient/Example-Smith-Johnson-Patient1"/>
        </subject>
        <effectiveDateTime value="2024-05-16T14:30:00-04:00"/>
        <performer>
          <reference value="PractitionerRole/Role-OT-JenCadbury"/>
        </performer>
        <valueCodeableConcept>
          <coding>
            <system value="http://loinc.org"/>
            <code value="LA11759-0"/>
            <display value="Substantial/maximal assistance - Helper does more than half the effort. Helper lifts or holds trunk or limbs and provides more than half the effort."/>
          </coding>
        </valueCodeableConcept>
      </Observation>
    </resource>
  </entry>
  <entry>
    <fullUrl value="http://www.example.org/fhir/Observation/BSJ-MDS-SitUp1"/>
    <resource>
      <Observation>
        <id value="BSJ-MDS-SitUp1"/>
        <meta>
          <profile value="http://hl7.org/fhir/us/pacio-pfe/StructureDefinition/pfe-observation-single"/>
        </meta>
        <text>
          <status value="extensions"/><div xmlns="http://www.w3.org/1999/xhtml"><a name="Observation_BSJ-MDS-SitUp1"> </a><p><b>Generated Narrative: Observation</b><a name="BSJ-MDS-SitUp1"> </a><a name="hcBSJ-MDS-SitUp1"> </a></p><div style="display: inline-block; background-color: #d9e0e7; padding: 6px; margin: 4px; border: 1px solid #8da1b4; border-radius: 5px; line-height: 60%"><p style="margin-bottom: 0px">ResourceObservation &quot;BSJ-MDS-SitUp1&quot; </p><p style="margin-bottom: 0px">Profile: <a href="http://hl7.org/fhir/us/pacio-pfe/STU1/StructureDefinition-pfe-observation-single.html">Personal Functioning and Engagement Single Observation</a></p></div><p><b>Event Location</b>: See on this page: Location/org-Loc-SNF-Happy-Nursing-Facility</p><p><b>status</b>: final</p><p><b>category</b>: Lying Down <span style="background: LightGoldenRodYellow; margin: 4px; border: 1px solid khaki"> (<a href="http://hl7.org/fhir/us/pacio-pfe/STU1/CodeSystem-pfe-category-cs.html">Personal Functioning and Engagement Category</a>#d4100)</span>, Survey <span style="background: LightGoldenRodYellow; margin: 4px; border: 1px solid khaki"> (<a href="http://terminology.hl7.org/5.4.0/CodeSystem-observation-category.html">Observation Category Codes</a>#survey)</span>, Functioning <span style="background: LightGoldenRodYellow; margin: 4px; border: 1px solid khaki"> (<a href="http://hl7.org/fhir/us/pacio-pfe/STU1/CodeSystem-pfe-functioning-cs.html">Personal Functioning and Engagement Functioning Category Code System</a>#functioning)</span></p><p><b>code</b>: Lying to sitting on side of bed - functional goal during assessment period [CMS Assessment] <span style="background: LightGoldenRodYellow; margin: 4px; border: 1px solid khaki"> (<a href="https://loinc.org/">LOINC</a>#85927-2)</span></p><p><b>subject</b>: See on this page: Patient/Example-Smith-Johnson-Patient1</p><p><b>effective</b>: 2024-05-16 14:30:00-0400</p><p><b>performer</b>: See on this page: PractitionerRole/Role-OT-JenCadbury</p><p><b>value</b>: Supervision or touching assistance - Helper provides verbal cues and/or touching/steadying and/or contact guard assistance as person completes activity. Assistance may be provided throughout the activity or intermittently. <span style="background: LightGoldenRodYellow; margin: 4px; border: 1px solid khaki"> (<a href="https://loinc.org/">LOINC</a>#LA30911-4)</span></p></div>
        </text>
        <extension url="http://hl7.org/fhir/StructureDefinition/event-location">
          <valueReference>
            <reference value="Location/org-Loc-SNF-Happy-Nursing-Facility"/>
          </valueReference>
        </extension>
        <status value="final"/>
        <category>
          <coding>
            <system value="http://hl7.org/fhir/us/pacio-pfe/CodeSystem/pfe-category-cs"/>
            <code value="d4100"/>
            <display value="Lying Down"/>
          </coding>
        </category>
        <category>
          <coding>
            <system value="http://terminology.hl7.org/CodeSystem/observation-category"/>
            <code value="survey"/>
          </coding>
        </category>
        <category>
          <coding>
            <system value="http://hl7.org/fhir/us/pacio-pfe/CodeSystem/pfe-functioning-cs"/>
            <code value="functioning"/>
            <display value="Functioning"/>
          </coding>
        </category>
        <code>
          <coding>
            <system value="http://loinc.org"/>
            <code value="85927-2"/>
            <display value="Lying to sitting on side of bed - functional goal during assessment period [CMS Assessment]"/>
          </coding>
        </code>
        <subject>
          <reference value="Patient/Example-Smith-Johnson-Patient1"/>
        </subject>
        <effectiveDateTime value="2024-05-16T14:30:00-04:00"/>
        <performer>
          <reference value="PractitionerRole/Role-OT-JenCadbury"/>
        </performer>
        <valueCodeableConcept>
          <coding>
            <system value="http://loinc.org"/>
            <code value="LA30911-4"/>
            <display value="Supervision or touching assistance - Helper provides verbal cues and/or touching/steadying and/or contact guard assistance as person completes activity. Assistance may be provided throughout the activity or intermittently."/>
          </coding>
        </valueCodeableConcept>
      </Observation>
    </resource>
  </entry>
  <entry>
    <fullUrl value="http://www.example.org/fhir/CarePlan/BSJ-SNFDischargeCarePlan"/>
    <resource>
      <CarePlan>
        <id value="BSJ-SNFDischargeCarePlan"/>
        <meta>
          <profile value="http://hl7.org/fhir/us/core/StructureDefinition/us-core-careplan"/>
        </meta>
        <text>
          <status value="generated"/><div xmlns="http://www.w3.org/1999/xhtml"><a name="CarePlan_BSJ-SNFDischargeCarePlan"> </a><p><b>Generated Narrative: CarePlan</b><a name="BSJ-SNFDischargeCarePlan"> </a><a name="hcBSJ-SNFDischargeCarePlan"> </a></p><div style="display: inline-block; background-color: #d9e0e7; padding: 6px; margin: 4px; border: 1px solid #8da1b4; border-radius: 5px; line-height: 60%"><p style="margin-bottom: 0px">ResourceCarePlan &quot;BSJ-SNFDischargeCarePlan&quot; </p><p style="margin-bottom: 0px">Profile: <a href="http://hl7.org/fhir/us/core/STU6.1/StructureDefinition-us-core-careplan.html">US Core CarePlan Profile</a></p></div><p><b>status</b>: active</p><p><b>intent</b>: plan</p><p><b>category</b>: Rehabilitation care plan (record artifact) <span style="background: LightGoldenRodYellow; margin: 4px; border: 1px solid khaki"> (<a href="https://browser.ihtsdotools.org/">SNOWMED CT</a>#736055001)</span>, Assessment and Plan of Treatment <span style="background: LightGoldenRodYellow; margin: 4px; border: 1px solid khaki"> (<a href="http://hl7.org/fhir/us/core/STU6.1/CodeSystem-careplan-category.html">US Core CarePlan Category Extension Codes</a>#assess-plan)</span></p><p><b>subject</b>: See on this page: Patient/Example-Smith-Johnson-Patient1</p><blockquote><p><b>activity</b></p><p><b>reference</b>: See on this page: ServiceRequest/BSJ-PCPFollowUp</p></blockquote><blockquote><p><b>activity</b></p><p><b>reference</b>: See on this page: ServiceRequest/BSJ-SNFDischargeCallOrder</p></blockquote><blockquote><p><b>activity</b></p><p><b>reference</b>: See on this page: ServiceRequest/BSJ-SNFDischargeCallOTRefer</p></blockquote><blockquote><p><b>activity</b></p><p><b>reference</b>: See on this page: ServiceRequest/BSJ-SNFDischargeCallSLPRefer</p></blockquote><blockquote><p><b>activity</b></p><p><b>reference</b>: See on this page: ServiceRequest/BSJ-SNFDischargeDietProtein</p></blockquote><blockquote><p><b>activity</b></p><p><b>reference</b>: See on this page: ServiceRequest/BSJ-SNFDischargeDietSalt</p></blockquote><blockquote><p><b>activity</b></p><p><b>reference</b>: See on this page: ServiceRequest/BSJ-SNFDischargeLabOrderBMP</p></blockquote><blockquote><p><b>activity</b></p><p><b>reference</b>: See on this page: ServiceRequest/BSJ-SNFDischargeLabOrderCBC</p></blockquote><blockquote><p><b>activity</b></p><p><b>reference</b>: See on this page: ServiceRequest/BSJ-SNFDischargePTRefer</p></blockquote></div>
        </text>
        <status value="active"/>
        <intent value="plan"/>
        <category>
          <coding>
            <system value="http://snomed.info/sct"/>
            <code value="736055001"/>
          </coding>
        </category>
        <category>
          <coding>
            <system value="http://hl7.org/fhir/us/core/CodeSystem/careplan-category"/>
            <code value="assess-plan"/>
          </coding>
        </category>
        <subject>
          <reference value="Patient/Example-Smith-Johnson-Patient1"/>
        </subject>
        <activity>
          <reference>
            <reference value="ServiceRequest/BSJ-PCPFollowUp"/>
          </reference>
        </activity>
        <activity>
          <reference>
            <reference value="ServiceRequest/BSJ-SNFDischargeCallOrder"/>
          </reference>
        </activity>
        <activity>
          <reference>
            <reference value="ServiceRequest/BSJ-SNFDischargeCallOTRefer"/>
          </reference>
        </activity>
        <activity>
          <reference>
            <reference value="ServiceRequest/BSJ-SNFDischargeCallSLPRefer"/>
          </reference>
        </activity>
        <activity>
          <reference>
            <reference value="ServiceRequest/BSJ-SNFDischargeDietProtein"/>
          </reference>
        </activity>
        <activity>
          <reference>
            <reference value="ServiceRequest/BSJ-SNFDischargeDietSalt"/>
          </reference>
        </activity>
        <activity>
          <reference>
            <reference value="ServiceRequest/BSJ-SNFDischargeLabOrderBMP"/>
          </reference>
        </activity>
        <activity>
          <reference>
            <reference value="ServiceRequest/BSJ-SNFDischargeLabOrderCBC"/>
          </reference>
        </activity>
        <activity>
          <reference>
            <reference value="ServiceRequest/BSJ-SNFDischargePTRefer"/>
          </reference>
        </activity>
      </CarePlan>
    </resource>
  </entry>
  <entry>
    <fullUrl value="http://www.example.org/fhir/ServiceRequest/BSJ-PCPFollowUp"/>
    <resource>
      <ServiceRequest>
        <id value="BSJ-PCPFollowUp"/>
        <meta>
          <profile value="http://hl7.org/fhir/us/core/StructureDefinition/us-core-servicerequest"/>
        </meta>
        <text>
          <status value="generated"/><div xmlns="http://www.w3.org/1999/xhtml"><a name="ServiceRequest_BSJ-PCPFollowUp"> </a><p><b>Generated Narrative: ServiceRequest</b><a name="BSJ-PCPFollowUp"> </a><a name="hcBSJ-PCPFollowUp"> </a></p><div style="display: inline-block; background-color: #d9e0e7; padding: 6px; margin: 4px; border: 1px solid #8da1b4; border-radius: 5px; line-height: 60%"><p style="margin-bottom: 0px">ResourceServiceRequest &quot;BSJ-PCPFollowUp&quot; </p><p style="margin-bottom: 0px">Profile: <a href="http://hl7.org/fhir/us/core/STU6.1/StructureDefinition-us-core-servicerequest.html">US Core ServiceRequest Profile</a></p></div><p><b>status</b>: active</p><p><b>intent</b>: order</p><p><b>category</b>: Evaluation procedure (procedure) <span style="background: LightGoldenRodYellow; margin: 4px; border: 1px solid khaki"> (<a href="https://browser.ihtsdotools.org/">SNOWMED CT</a>#386053000)</span></p><p><b>priority</b>: routine</p><p><b>code</b>: Follow-up visit (procedure) <span style="background: LightGoldenRodYellow; margin: 4px; border: 1px solid khaki"> (<a href="https://browser.ihtsdotools.org/">SNOWMED CT</a>#185389009)</span></p><p><b>subject</b>: See on this page: Patient/Example-Smith-Johnson-Patient1</p><p><b>occurrence</b>: 2024-05-28</p><p><b>authoredOn</b>: 2024-05-18</p><p><b>requester</b>: See on this page: PractitionerRole/Role-SNFDoc-GeraldPark</p></div>
        </text>
        <status value="active"/>
        <intent value="order"/>
        <category>
          <coding>
            <system value="http://snomed.info/sct"/>
            <code value="386053000"/>
            <display value="Evaluation procedure (procedure)"/>
          </coding>
        </category>
        <priority value="routine"/>
        <code>
          <coding>
            <system value="http://snomed.info/sct"/>
            <code value="185389009"/>
            <display value="Follow-up visit (procedure)"/>
          </coding>
        </code>
        <subject>
          <reference value="Patient/Example-Smith-Johnson-Patient1"/>
        </subject>
        <occurrenceDateTime value="2024-05-28"/>
        <authoredOn value="2024-05-18"/>
        <requester>
          <reference value="PractitionerRole/Role-SNFDoc-GeraldPark"/>
        </requester>
      </ServiceRequest>
    </resource>
  </entry>
  <entry>
    <fullUrl value="http://www.example.org/fhir/ServiceRequest/BSJ-SNFDischargeCallOrder"/>
    <resource>
      <ServiceRequest>
        <id value="BSJ-SNFDischargeCallOrder"/>
        <meta>
          <profile value="http://hl7.org/fhir/us/core/StructureDefinition/us-core-servicerequest"/>
        </meta>
        <text>
          <status value="generated"/><div xmlns="http://www.w3.org/1999/xhtml"><a name="ServiceRequest_BSJ-SNFDischargeCallOrder"> </a><p><b>Generated Narrative: ServiceRequest</b><a name="BSJ-SNFDischargeCallOrder"> </a><a name="hcBSJ-SNFDischargeCallOrder"> </a></p><div style="display: inline-block; background-color: #d9e0e7; padding: 6px; margin: 4px; border: 1px solid #8da1b4; border-radius: 5px; line-height: 60%"><p style="margin-bottom: 0px">ResourceServiceRequest &quot;BSJ-SNFDischargeCallOrder&quot; </p><p style="margin-bottom: 0px">Profile: <a href="http://hl7.org/fhir/us/core/STU6.1/StructureDefinition-us-core-servicerequest.html">US Core ServiceRequest Profile</a></p></div><p><b>status</b>: active</p><p><b>intent</b>: order</p><p><b>category</b>: Evaluation procedure (procedure) <span style="background: LightGoldenRodYellow; margin: 4px; border: 1px solid khaki"> (<a href="https://browser.ihtsdotools.org/">SNOWMED CT</a>#386053000)</span></p><p><b>priority</b>: routine</p><p><b>code</b>: Informing doctor (procedure) <span style="background: LightGoldenRodYellow; margin: 4px; border: 1px solid khaki"> (<a href="https://browser.ihtsdotools.org/">SNOWMED CT</a>#304562007)</span></p><p><b>subject</b>: See on this page: Patient/Example-Smith-Johnson-Patient1</p><p><b>occurrence</b>: 2024-05-18 --&gt; (ongoing)</p><p><b>authoredOn</b>: 2024-05-18</p><p><b>requester</b>: See on this page: PractitionerRole/Role-SNFDoc-GeraldPark</p></div>
        </text>
        <status value="active"/>
        <intent value="order"/>
        <category>
          <coding>
            <system value="http://snomed.info/sct"/>
            <code value="386053000"/>
            <display value="Evaluation procedure (procedure)"/>
          </coding>
        </category>
        <priority value="routine"/>
        <code>
          <coding>
            <system value="http://snomed.info/sct"/>
            <code value="304562007"/>
            <display value="Informing doctor (procedure)"/>
          </coding>
        </code>
        <subject>
          <reference value="Patient/Example-Smith-Johnson-Patient1"/>
        </subject>
        <occurrencePeriod>
          <start value="2024-05-18"/>
        </occurrencePeriod>
        <authoredOn value="2024-05-18"/>
        <requester>
          <reference value="PractitionerRole/Role-SNFDoc-GeraldPark"/>
        </requester>
      </ServiceRequest>
    </resource>
  </entry>
  <entry>
    <fullUrl value="http://www.example.org/fhir/ServiceRequest/BSJ-SNFDischargeCallOTRefer"/>
    <resource>
      <ServiceRequest>
        <id value="BSJ-SNFDischargeCallOTRefer"/>
        <meta>
          <profile value="http://hl7.org/fhir/us/core/StructureDefinition/us-core-servicerequest"/>
        </meta>
        <text>
          <status value="generated"/><div xmlns="http://www.w3.org/1999/xhtml"><a name="ServiceRequest_BSJ-SNFDischargeCallOTRefer"> </a><p><b>Generated Narrative: ServiceRequest</b><a name="BSJ-SNFDischargeCallOTRefer"> </a><a name="hcBSJ-SNFDischargeCallOTRefer"> </a></p><div style="display: inline-block; background-color: #d9e0e7; padding: 6px; margin: 4px; border: 1px solid #8da1b4; border-radius: 5px; line-height: 60%"><p style="margin-bottom: 0px">ResourceServiceRequest &quot;BSJ-SNFDischargeCallOTRefer&quot; </p><p style="margin-bottom: 0px">Profile: <a href="http://hl7.org/fhir/us/core/STU6.1/StructureDefinition-us-core-servicerequest.html">US Core ServiceRequest Profile</a></p></div><p><b>status</b>: active</p><p><b>intent</b>: order</p><p><b>category</b>: Evaluation procedure (procedure) <span style="background: LightGoldenRodYellow; margin: 4px; border: 1px solid khaki"> (<a href="https://browser.ihtsdotools.org/">SNOWMED CT</a>#386053000)</span></p><p><b>priority</b>: routine</p><p><b>code</b>: Occupational therapy assessment (procedure) <span style="background: LightGoldenRodYellow; margin: 4px; border: 1px solid khaki"> (<a href="https://browser.ihtsdotools.org/">SNOWMED CT</a>#410155007)</span></p><p><b>subject</b>: See on this page: Patient/Example-Smith-Johnson-Patient1</p><p><b>occurrence</b>: 2024-05-18 --&gt; (ongoing)</p><p><b>authoredOn</b>: 2024-05-18</p><p><b>requester</b>: See on this page: PractitionerRole/Role-SNFDoc-GeraldPark</p><p><b>reasonReference</b>: See on this page: Condition/BSJ-HemiparesisDiagnosis</p></div>
        </text>
        <status value="active"/>
        <intent value="order"/>
        <category>
          <coding>
            <system value="http://snomed.info/sct"/>
            <code value="386053000"/>
            <display value="Evaluation procedure (procedure)"/>
          </coding>
        </category>
        <priority value="routine"/>
        <code>
          <coding>
            <system value="http://snomed.info/sct"/>
            <code value="410155007"/>
            <display value="Occupational therapy assessment (procedure)"/>
          </coding>
        </code>
        <subject>
          <reference value="Patient/Example-Smith-Johnson-Patient1"/>
        </subject>
        <occurrencePeriod>
          <start value="2024-05-18"/>
        </occurrencePeriod>
        <authoredOn value="2024-05-18"/>
        <requester>
          <reference value="PractitionerRole/Role-SNFDoc-GeraldPark"/>
        </requester>
        <reasonReference>
          <reference value="Condition/BSJ-HemiparesisDiagnosis"/>
        </reasonReference>
      </ServiceRequest>
    </resource>
  </entry>
  <entry>
    <fullUrl value="http://www.example.org/fhir/ServiceRequest/BSJ-SNFDischargeCallSLPRefer"/>
    <resource>
      <ServiceRequest>
        <id value="BSJ-SNFDischargeCallSLPRefer"/>
        <meta>
          <profile value="http://hl7.org/fhir/us/core/StructureDefinition/us-core-servicerequest"/>
        </meta>
        <text>
          <status value="generated"/><div xmlns="http://www.w3.org/1999/xhtml"><a name="ServiceRequest_BSJ-SNFDischargeCallSLPRefer"> </a><p><b>Generated Narrative: ServiceRequest</b><a name="BSJ-SNFDischargeCallSLPRefer"> </a><a name="hcBSJ-SNFDischargeCallSLPRefer"> </a></p><div style="display: inline-block; background-color: #d9e0e7; padding: 6px; margin: 4px; border: 1px solid #8da1b4; border-radius: 5px; line-height: 60%"><p style="margin-bottom: 0px">ResourceServiceRequest &quot;BSJ-SNFDischargeCallSLPRefer&quot; </p><p style="margin-bottom: 0px">Profile: <a href="http://hl7.org/fhir/us/core/STU6.1/StructureDefinition-us-core-servicerequest.html">US Core ServiceRequest Profile</a></p></div><p><b>status</b>: active</p><p><b>intent</b>: order</p><p><b>category</b>: Evaluation procedure (procedure) <span style="background: LightGoldenRodYellow; margin: 4px; border: 1px solid khaki"> (<a href="https://browser.ihtsdotools.org/">SNOWMED CT</a>#386053000)</span></p><p><b>priority</b>: routine</p><p><b>code</b>: Speech therapy assessment (procedure) <span style="background: LightGoldenRodYellow; margin: 4px; border: 1px solid khaki"> (<a href="https://browser.ihtsdotools.org/">SNOWMED CT</a>#410161005)</span></p><p><b>subject</b>: See on this page: Patient/Example-Smith-Johnson-Patient1</p><p><b>occurrence</b>: 2024-05-18 --&gt; (ongoing)</p><p><b>authoredOn</b>: 2024-05-18</p><p><b>requester</b>: See on this page: PractitionerRole/Role-SNFDoc-GeraldPark</p></div>
        </text>
        <status value="active"/>
        <intent value="order"/>
        <category>
          <coding>
            <system value="http://snomed.info/sct"/>
            <code value="386053000"/>
            <display value="Evaluation procedure (procedure)"/>
          </coding>
        </category>
        <priority value="routine"/>
        <code>
          <coding>
            <system value="http://snomed.info/sct"/>
            <code value="410161005"/>
            <display value="Speech therapy assessment (procedure)"/>
          </coding>
        </code>
        <subject>
          <reference value="Patient/Example-Smith-Johnson-Patient1"/>
        </subject>
        <occurrencePeriod>
          <start value="2024-05-18"/>
        </occurrencePeriod>
        <authoredOn value="2024-05-18"/>
        <requester>
          <reference value="PractitionerRole/Role-SNFDoc-GeraldPark"/>
        </requester>
      </ServiceRequest>
    </resource>
  </entry>
  <entry>
    <fullUrl value="http://www.example.org/fhir/ServiceRequest/BSJ-SNFDischargeDietProtein"/>
    <resource>
      <ServiceRequest>
        <id value="BSJ-SNFDischargeDietProtein"/>
        <meta>
          <profile value="http://hl7.org/fhir/us/core/StructureDefinition/us-core-servicerequest"/>
        </meta>
        <text>
          <status value="generated"/><div xmlns="http://www.w3.org/1999/xhtml"><a name="ServiceRequest_BSJ-SNFDischargeDietProtein"> </a><p><b>Generated Narrative: ServiceRequest</b><a name="BSJ-SNFDischargeDietProtein"> </a><a name="hcBSJ-SNFDischargeDietProtein"> </a></p><div style="display: inline-block; background-color: #d9e0e7; padding: 6px; margin: 4px; border: 1px solid #8da1b4; border-radius: 5px; line-height: 60%"><p style="margin-bottom: 0px">ResourceServiceRequest &quot;BSJ-SNFDischargeDietProtein&quot; </p><p style="margin-bottom: 0px">Profile: <a href="http://hl7.org/fhir/us/core/STU6.1/StructureDefinition-us-core-servicerequest.html">US Core ServiceRequest Profile</a></p></div><p><b>status</b>: active</p><p><b>intent</b>: order</p><p><b>category</b>: Dietary regime (regime/therapy) <span style="background: LightGoldenRodYellow; margin: 4px; border: 1px solid khaki"> (<a href="https://browser.ihtsdotools.org/">SNOWMED CT</a>#182922004)</span></p><p><b>priority</b>: routine</p><p><b>code</b>: Decreased protein and/or protein derivative diet (regime/therapy) <span style="background: LightGoldenRodYellow; margin: 4px; border: 1px solid khaki"> (<a href="https://browser.ihtsdotools.org/">SNOWMED CT</a>#1055201009)</span></p><p><b>subject</b>: See on this page: Patient/Example-Smith-Johnson-Patient1</p><p><b>occurrence</b>: 2024-05-18 --&gt; (ongoing)</p><p><b>authoredOn</b>: 2024-05-18</p><p><b>requester</b>: See on this page: PractitionerRole/Role-SNFDoc-GeraldPark</p><p><b>reasonReference</b>: See on this page: Condition/BSJ-KidneyDisease</p></div>
        </text>
        <status value="active"/>
        <intent value="order"/>
        <category>
          <coding>
            <system value="http://snomed.info/sct"/>
            <code value="182922004"/>
            <display value="Dietary regime (regime/therapy)"/>
          </coding>
        </category>
        <priority value="routine"/>
        <code>
          <coding>
            <system value="http://snomed.info/sct"/>
            <code value="1055201009"/>
            <display value="Decreased protein and/or protein derivative diet (regime/therapy)"/>
          </coding>
        </code>
        <subject>
          <reference value="Patient/Example-Smith-Johnson-Patient1"/>
        </subject>
        <occurrencePeriod>
          <start value="2024-05-18"/>
        </occurrencePeriod>
        <authoredOn value="2024-05-18"/>
        <requester>
          <reference value="PractitionerRole/Role-SNFDoc-GeraldPark"/>
        </requester>
        <reasonReference>
          <reference value="Condition/BSJ-KidneyDisease"/>
        </reasonReference>
      </ServiceRequest>
    </resource>
  </entry>
  <entry>
    <fullUrl value="http://www.example.org/fhir/ServiceRequest/BSJ-SNFDischargeDietSalt"/>
    <resource>
      <ServiceRequest>
        <id value="BSJ-SNFDischargeDietSalt"/>
        <meta>
          <profile value="http://hl7.org/fhir/us/core/StructureDefinition/us-core-servicerequest"/>
        </meta>
        <text>
          <status value="generated"/><div xmlns="http://www.w3.org/1999/xhtml"><a name="ServiceRequest_BSJ-SNFDischargeDietSalt"> </a><p><b>Generated Narrative: ServiceRequest</b><a name="BSJ-SNFDischargeDietSalt"> </a><a name="hcBSJ-SNFDischargeDietSalt"> </a></p><div style="display: inline-block; background-color: #d9e0e7; padding: 6px; margin: 4px; border: 1px solid #8da1b4; border-radius: 5px; line-height: 60%"><p style="margin-bottom: 0px">ResourceServiceRequest &quot;BSJ-SNFDischargeDietSalt&quot; </p><p style="margin-bottom: 0px">Profile: <a href="http://hl7.org/fhir/us/core/STU6.1/StructureDefinition-us-core-servicerequest.html">US Core ServiceRequest Profile</a></p></div><p><b>status</b>: active</p><p><b>intent</b>: order</p><p><b>category</b>: Dietary regime (regime/therapy) <span style="background: LightGoldenRodYellow; margin: 4px; border: 1px solid khaki"> (<a href="https://browser.ihtsdotools.org/">SNOWMED CT</a>#182922004)</span></p><p><b>priority</b>: routine</p><p><b>code</b>: Decreased sodium diet (regime/therapy) <span style="background: LightGoldenRodYellow; margin: 4px; border: 1px solid khaki"> (<a href="https://browser.ihtsdotools.org/">SNOWMED CT</a>#437421000124105)</span></p><p><b>subject</b>: See on this page: Patient/Example-Smith-Johnson-Patient1</p><p><b>occurrence</b>: 2024-05-18 --&gt; (ongoing)</p><p><b>authoredOn</b>: 2024-05-18</p><p><b>requester</b>: See on this page: PractitionerRole/Role-SNFDoc-GeraldPark</p><p><b>reasonReference</b>: </p><ul><li>See on this page: Condition/BSJ-HeartDiseaseDiagnosis</li><li>See on this page: Condition/BSJ-KidneyDisease</li></ul></div>
        </text>
        <status value="active"/>
        <intent value="order"/>
        <category>
          <coding>
            <system value="http://snomed.info/sct"/>
            <code value="182922004"/>
            <display value="Dietary regime (regime/therapy)"/>
          </coding>
        </category>
        <priority value="routine"/>
        <code>
          <coding>
            <system value="http://snomed.info/sct"/>
            <code value="437421000124105"/>
            <display value="Decreased sodium diet (regime/therapy)"/>
          </coding>
        </code>
        <subject>
          <reference value="Patient/Example-Smith-Johnson-Patient1"/>
        </subject>
        <occurrencePeriod>
          <start value="2024-05-18"/>
        </occurrencePeriod>
        <authoredOn value="2024-05-18"/>
        <requester>
          <reference value="PractitionerRole/Role-SNFDoc-GeraldPark"/>
        </requester>
        <reasonReference>
          <reference value="Condition/BSJ-HeartDiseaseDiagnosis"/>
        </reasonReference>
        <reasonReference>
          <reference value="Condition/BSJ-KidneyDisease"/>
        </reasonReference>
      </ServiceRequest>
    </resource>
  </entry>
  <entry>
    <fullUrl value="http://www.example.org/fhir/ServiceRequest/BSJ-SNFDischargeLabOrderBMP"/>
    <resource>
      <ServiceRequest>
        <id value="BSJ-SNFDischargeLabOrderBMP"/>
        <meta>
          <profile value="http://hl7.org/fhir/us/core/StructureDefinition/us-core-servicerequest"/>
        </meta>
        <text>
          <status value="generated"/><div xmlns="http://www.w3.org/1999/xhtml"><a name="ServiceRequest_BSJ-SNFDischargeLabOrderBMP"> </a><p><b>Generated Narrative: ServiceRequest</b><a name="BSJ-SNFDischargeLabOrderBMP"> </a><a name="hcBSJ-SNFDischargeLabOrderBMP"> </a></p><div style="display: inline-block; background-color: #d9e0e7; padding: 6px; margin: 4px; border: 1px solid #8da1b4; border-radius: 5px; line-height: 60%"><p style="margin-bottom: 0px">ResourceServiceRequest &quot;BSJ-SNFDischargeLabOrderBMP&quot; </p><p style="margin-bottom: 0px">Profile: <a href="http://hl7.org/fhir/us/core/STU6.1/StructureDefinition-us-core-servicerequest.html">US Core ServiceRequest Profile</a></p></div><p><b>status</b>: active</p><p><b>intent</b>: order</p><p><b>category</b>: Laboratory procedure <span style="background: LightGoldenRodYellow; margin: 4px; border: 1px solid khaki"> (<a href="https://browser.ihtsdotools.org/">SNOWMED CT</a>#108252007)</span></p><p><b>priority</b>: routine</p><p><b>code</b>: Blood chemistry (procedure) <span style="background: LightGoldenRodYellow; margin: 4px; border: 1px solid khaki"> (<a href="https://browser.ihtsdotools.org/">SNOWMED CT</a>#166312007)</span></p><p><b>subject</b>: See on this page: Patient/Example-Smith-Johnson-Patient1</p><p><b>occurrence</b>: 2024-05-28</p><p><b>authoredOn</b>: 2024-05-18</p><p><b>requester</b>: See on this page: PractitionerRole/Role-SNFDoc-GeraldPark</p><p><b>reasonReference</b>: </p><ul><li>See on this page: Condition/BSJ-AnemiaDiagnosis</li><li>See on this page: Condition/BSJ-Hyperlipidemia</li><li>See on this page: Condition/BSJ-KidneyDisease</li><li>See on this page: Condition/BSJ-DiabetesDiagnosis</li></ul></div>
        </text>
        <status value="active"/>
        <intent value="order"/>
        <category>
          <coding>
            <system value="http://snomed.info/sct"/>
            <code value="108252007"/>
            <display value="Laboratory procedure"/>
          </coding>
        </category>
        <priority value="routine"/>
        <code>
          <coding>
            <system value="http://snomed.info/sct"/>
            <code value="166312007"/>
            <display value="Blood chemistry (procedure)"/>
          </coding>
        </code>
        <subject>
          <reference value="Patient/Example-Smith-Johnson-Patient1"/>
        </subject>
        <occurrenceDateTime value="2024-05-28"/>
        <authoredOn value="2024-05-18"/>
        <requester>
          <reference value="PractitionerRole/Role-SNFDoc-GeraldPark"/>
        </requester>
        <reasonReference>
          <reference value="Condition/BSJ-AnemiaDiagnosis"/>
        </reasonReference>
        <reasonReference>
          <reference value="Condition/BSJ-Hyperlipidemia"/>
        </reasonReference>
        <reasonReference>
          <reference value="Condition/BSJ-KidneyDisease"/>
        </reasonReference>
        <reasonReference>
          <reference value="Condition/BSJ-DiabetesDiagnosis"/>
        </reasonReference>
      </ServiceRequest>
    </resource>
  </entry>
  <entry>
    <fullUrl value="http://www.example.org/fhir/ServiceRequest/BSJ-SNFDischargeLabOrderCBC"/>
    <resource>
      <ServiceRequest>
        <id value="BSJ-SNFDischargeLabOrderCBC"/>
        <meta>
          <profile value="http://hl7.org/fhir/us/core/StructureDefinition/us-core-servicerequest"/>
        </meta>
        <text>
          <status value="generated"/><div xmlns="http://www.w3.org/1999/xhtml"><a name="ServiceRequest_BSJ-SNFDischargeLabOrderCBC"> </a><p><b>Generated Narrative: ServiceRequest</b><a name="BSJ-SNFDischargeLabOrderCBC"> </a><a name="hcBSJ-SNFDischargeLabOrderCBC"> </a></p><div style="display: inline-block; background-color: #d9e0e7; padding: 6px; margin: 4px; border: 1px solid #8da1b4; border-radius: 5px; line-height: 60%"><p style="margin-bottom: 0px">ResourceServiceRequest &quot;BSJ-SNFDischargeLabOrderCBC&quot; </p><p style="margin-bottom: 0px">Profile: <a href="http://hl7.org/fhir/us/core/STU6.1/StructureDefinition-us-core-servicerequest.html">US Core ServiceRequest Profile</a></p></div><p><b>status</b>: active</p><p><b>intent</b>: order</p><p><b>category</b>: Laboratory procedure <span style="background: LightGoldenRodYellow; margin: 4px; border: 1px solid khaki"> (<a href="https://browser.ihtsdotools.org/">SNOWMED CT</a>#108252007)</span></p><p><b>priority</b>: routine</p><p><b>code</b>: Complete blood count without differential (procedure) <span style="background: LightGoldenRodYellow; margin: 4px; border: 1px solid khaki"> (<a href="https://browser.ihtsdotools.org/">SNOWMED CT</a>#43789009)</span></p><p><b>subject</b>: See on this page: Patient/Example-Smith-Johnson-Patient1</p><p><b>occurrence</b>: 2024-05-28</p><p><b>authoredOn</b>: 2024-05-18</p><p><b>requester</b>: See on this page: PractitionerRole/Role-SNFDoc-GeraldPark</p><p><b>reasonReference</b>: See on this page: Condition/BSJ-AnemiaDiagnosis</p></div>
        </text>
        <status value="active"/>
        <intent value="order"/>
        <category>
          <coding>
            <system value="http://snomed.info/sct"/>
            <code value="108252007"/>
            <display value="Laboratory procedure"/>
          </coding>
        </category>
        <priority value="routine"/>
        <code>
          <coding>
            <system value="http://snomed.info/sct"/>
            <code value="43789009"/>
            <display value="Complete blood count without differential (procedure)"/>
          </coding>
        </code>
        <subject>
          <reference value="Patient/Example-Smith-Johnson-Patient1"/>
        </subject>
        <occurrenceDateTime value="2024-05-28"/>
        <authoredOn value="2024-05-18"/>
        <requester>
          <reference value="PractitionerRole/Role-SNFDoc-GeraldPark"/>
        </requester>
        <reasonReference>
          <reference value="Condition/BSJ-AnemiaDiagnosis"/>
        </reasonReference>
      </ServiceRequest>
    </resource>
  </entry>
  <entry>
    <fullUrl value="http://www.example.org/fhir/ServiceRequest/BSJ-SNFDischargePTRefer"/>
    <resource>
      <ServiceRequest>
        <id value="BSJ-SNFDischargePTRefer"/>
        <meta>
          <profile value="http://hl7.org/fhir/us/core/StructureDefinition/us-core-servicerequest"/>
        </meta>
        <text>
          <status value="generated"/><div xmlns="http://www.w3.org/1999/xhtml"><a name="ServiceRequest_BSJ-SNFDischargePTRefer"> </a><p><b>Generated Narrative: ServiceRequest</b><a name="BSJ-SNFDischargePTRefer"> </a><a name="hcBSJ-SNFDischargePTRefer"> </a></p><div style="display: inline-block; background-color: #d9e0e7; padding: 6px; margin: 4px; border: 1px solid #8da1b4; border-radius: 5px; line-height: 60%"><p style="margin-bottom: 0px">ResourceServiceRequest &quot;BSJ-SNFDischargePTRefer&quot; </p><p style="margin-bottom: 0px">Profile: <a href="http://hl7.org/fhir/us/core/STU6.1/StructureDefinition-us-core-servicerequest.html">US Core ServiceRequest Profile</a></p></div><p><b>status</b>: active</p><p><b>intent</b>: order</p><p><b>category</b>: Evaluation procedure (procedure) <span style="background: LightGoldenRodYellow; margin: 4px; border: 1px solid khaki"> (<a href="https://browser.ihtsdotools.org/">SNOWMED CT</a>#386053000)</span></p><p><b>priority</b>: routine</p><p><b>code</b>: Physical therapy assessment (procedure) <span style="background: LightGoldenRodYellow; margin: 4px; border: 1px solid khaki"> (<a href="https://browser.ihtsdotools.org/">SNOWMED CT</a>#410158009)</span></p><p><b>subject</b>: See on this page: Patient/Example-Smith-Johnson-Patient1</p><p><b>occurrence</b>: 2024-05-18 --&gt; (ongoing)</p><p><b>authoredOn</b>: 2024-05-18</p><p><b>requester</b>: See on this page: PractitionerRole/Role-SNFDoc-GeraldPark</p><p><b>reasonReference</b>: See on this page: Condition/BSJ-HemiparesisDiagnosis</p></div>
        </text>
        <status value="active"/>
        <intent value="order"/>
        <category>
          <coding>
            <system value="http://snomed.info/sct"/>
            <code value="386053000"/>
            <display value="Evaluation procedure (procedure)"/>
          </coding>
        </category>
        <priority value="routine"/>
        <code>
          <coding>
            <system value="http://snomed.info/sct"/>
            <code value="410158009"/>
            <display value="Physical therapy assessment (procedure)"/>
          </coding>
        </code>
        <subject>
          <reference value="Patient/Example-Smith-Johnson-Patient1"/>
        </subject>
        <occurrencePeriod>
          <start value="2024-05-18"/>
        </occurrencePeriod>
        <authoredOn value="2024-05-18"/>
        <requester>
          <reference value="PractitionerRole/Role-SNFDoc-GeraldPark"/>
        </requester>
        <reasonReference>
          <reference value="Condition/BSJ-HemiparesisDiagnosis"/>
        </reasonReference>
      </ServiceRequest>
    </resource>
  </entry>
  <entry>
    <fullUrl value="http://www.example.org/fhir/Location/org-Loc-Everyday-Community-Pharm"/>
    <resource>
      <Location>
        <id value="org-Loc-Everyday-Community-Pharm"/>
        <meta>
          <profile value="http://hl7.org/fhir/us/core/StructureDefinition/us-core-location"/>
        </meta>
        <text>
          <status value="generated"/><div xmlns="http://www.w3.org/1999/xhtml"><a name="Location_org-Loc-Everyday-Community-Pharm"> </a><p><b>Generated Narrative: Location</b><a name="org-Loc-Everyday-Community-Pharm"> </a><a name="hcorg-Loc-Everyday-Community-Pharm"> </a></p><div style="display: inline-block; background-color: #d9e0e7; padding: 6px; margin: 4px; border: 1px solid #8da1b4; border-radius: 5px; line-height: 60%"><p style="margin-bottom: 0px">ResourceLocation &quot;org-Loc-Everyday-Community-Pharm&quot; </p><p style="margin-bottom: 0px">Profile: <a href="http://hl7.org/fhir/us/core/STU6.1/StructureDefinition-us-core-location.html">US Core Location Profile</a></p></div><p><b>status</b>: active</p><p><b>name</b>: Everyday Community Pharmacy</p><p><b>address</b>: 125 Yew St, Grand Rapids, MI 49503</p></div>
        </text>
        <status value="active"/>
        <name value="Everyday Community Pharmacy"/>
        <address>
          <text value="125 Yew St, Grand Rapids, MI 49503"/>
          <line value="125 Yew St"/>
          <city value="Grand Rapids"/>
          <state value="MI"/>
          <postalCode value="49503"/>
          <country value="US"/>
        </address>
      </Location>
    </resource>
  </entry>
  <entry>
    <fullUrl value="http://www.example.org/fhir/Location/org-Loc-NED-Contract-Pharm"/>
    <resource>
      <Location>
        <id value="org-Loc-NED-Contract-Pharm"/>
        <meta>
          <profile value="http://hl7.org/fhir/us/core/StructureDefinition/us-core-location"/>
        </meta>
        <text>
          <status value="generated"/><div xmlns="http://www.w3.org/1999/xhtml"><a name="Location_org-Loc-NED-Contract-Pharm"> </a><p><b>Generated Narrative: Location</b><a name="org-Loc-NED-Contract-Pharm"> </a><a name="hcorg-Loc-NED-Contract-Pharm"> </a></p><div style="display: inline-block; background-color: #d9e0e7; padding: 6px; margin: 4px; border: 1px solid #8da1b4; border-radius: 5px; line-height: 60%"><p style="margin-bottom: 0px">ResourceLocation &quot;org-Loc-NED-Contract-Pharm&quot; </p><p style="margin-bottom: 0px">Profile: <a href="http://hl7.org/fhir/us/core/STU6.1/StructureDefinition-us-core-location.html">US Core Location Profile</a></p></div><p><b>status</b>: active</p><p><b>name</b>: Not Every Day Contract Pharmacy</p><p><b>address</b>: 155 Light Commercial Ave, Grand Rapids, MI 49509</p></div>
        </text>
        <status value="active"/>
        <name value="Not Every Day Contract Pharmacy"/>
        <address>
          <text value="155 Light Commercial Ave, Grand Rapids, MI 49509"/>
          <line value="155 Light Commercial Ave"/>
          <city value="Grand Rapids"/>
          <state value="MI"/>
          <postalCode value="49509"/>
          <country value="US"/>
        </address>
      </Location>
    </resource>
  </entry>
  <entry>
    <fullUrl value="http://www.example.org/fhir/Location/org-Loc-Neuro-Care-Inc"/>
    <resource>
      <Location>
        <id value="org-Loc-Neuro-Care-Inc"/>
        <meta>
          <profile value="http://hl7.org/fhir/us/core/StructureDefinition/us-core-location"/>
        </meta>
        <text>
          <status value="generated"/><div xmlns="http://www.w3.org/1999/xhtml"><a name="Location_org-Loc-Neuro-Care-Inc"> </a><p><b>Generated Narrative: Location</b><a name="org-Loc-Neuro-Care-Inc"> </a><a name="hcorg-Loc-Neuro-Care-Inc"> </a></p><div style="display: inline-block; background-color: #d9e0e7; padding: 6px; margin: 4px; border: 1px solid #8da1b4; border-radius: 5px; line-height: 60%"><p style="margin-bottom: 0px">ResourceLocation &quot;org-Loc-Neuro-Care-Inc&quot; </p><p style="margin-bottom: 0px">Profile: <a href="http://hl7.org/fhir/us/core/STU6.1/StructureDefinition-us-core-location.html">US Core Location Profile</a></p></div><p><b>status</b>: active</p><p><b>name</b>: Neuro Care Inc.</p><p><b>address</b>: 177 Branching Tree Blvd, Grand Rapids, MI 49509</p></div>
        </text>
        <status value="active"/>
        <name value="Neuro Care Inc."/>
        <address>
          <text value="177 Branching Tree Blvd, Grand Rapids, MI 49509"/>
          <line value="177 Branching Tree Blvd"/>
          <city value="Grand Rapids"/>
          <state value="MI"/>
          <postalCode value="49509"/>
          <country value="US"/>
        </address>
      </Location>
    </resource>
  </entry>
  <entry>
    <fullUrl value="http://www.example.org/fhir/Location/org-Loc-PC-Primary-Care-Michigan"/>
    <resource>
      <Location>
        <id value="org-Loc-PC-Primary-Care-Michigan"/>
        <meta>
          <profile value="http://hl7.org/fhir/us/core/StructureDefinition/us-core-location"/>
        </meta>
        <text>
          <status value="generated"/><div xmlns="http://www.w3.org/1999/xhtml"><a name="Location_org-Loc-PC-Primary-Care-Michigan"> </a><p><b>Generated Narrative: Location</b><a name="org-Loc-PC-Primary-Care-Michigan"> </a><a name="hcorg-Loc-PC-Primary-Care-Michigan"> </a></p><div style="display: inline-block; background-color: #d9e0e7; padding: 6px; margin: 4px; border: 1px solid #8da1b4; border-radius: 5px; line-height: 60%"><p style="margin-bottom: 0px">ResourceLocation &quot;org-Loc-PC-Primary-Care-Michigan&quot; </p><p style="margin-bottom: 0px">Profile: <a href="http://hl7.org/fhir/us/core/STU6.1/StructureDefinition-us-core-location.html">US Core Location Profile</a></p></div><p><b>status</b>: active</p><p><b>name</b>: Michigan Primary Health Care Associates</p><p><b>address</b>: 123 Spruce Dr. Grand Rapids, MI 49503</p></div>
        </text>
        <status value="active"/>
        <name value="Michigan Primary Health Care Associates"/>
        <address>
          <text value="123 Spruce Dr. Grand Rapids, MI 49503"/>
          <line value="123 Spruce Dr"/>
          <city value="Grand Rapids"/>
          <state value="MI"/>
          <postalCode value="49503"/>
          <country value="US"/>
        </address>
      </Location>
    </resource>
  </entry>
  <entry>
    <fullUrl value="http://www.example.org/fhir/Location/org-Loc-SNF-Happy-Nursing-Facility"/>
    <resource>
      <Location>
        <id value="org-Loc-SNF-Happy-Nursing-Facility"/>
        <meta>
          <profile value="http://hl7.org/fhir/us/core/StructureDefinition/us-core-location"/>
        </meta>
        <text>
          <status value="generated"/><div xmlns="http://www.w3.org/1999/xhtml"><a name="Location_org-Loc-SNF-Happy-Nursing-Facility"> </a><p><b>Generated Narrative: Location</b><a name="org-Loc-SNF-Happy-Nursing-Facility"> </a><a name="hcorg-Loc-SNF-Happy-Nursing-Facility"> </a></p><div style="display: inline-block; background-color: #d9e0e7; padding: 6px; margin: 4px; border: 1px solid #8da1b4; border-radius: 5px; line-height: 60%"><p style="margin-bottom: 0px">ResourceLocation &quot;org-Loc-SNF-Happy-Nursing-Facility&quot; </p><p style="margin-bottom: 0px">Profile: <a href="http://hl7.org/fhir/us/core/STU6.1/StructureDefinition-us-core-location.html">US Core Location Profile</a></p></div><p><b>status</b>: active</p><p><b>name</b>: Happy Nursing Facility</p><p><b>address</b>: 8100 Pinebrook Dr, Grand Rapids, MI 49504</p></div>
        </text>
        <status value="active"/>
        <name value="Happy Nursing Facility"/>
        <address>
          <text value="8100 Pinebrook Dr, Grand Rapids, MI 49504"/>
          <line value="8100 Pinebrook Dr"/>
          <city value="Grand Rapids"/>
          <state value="MI"/>
          <postalCode value="49504"/>
          <country value="US"/>
        </address>
      </Location>
    </resource>
  </entry>
  <entry>
    <fullUrl value="http://www.example.org/fhir/Organization/org-Neuro-Care-Inc"/>
    <resource>
      <Organization>
        <id value="org-Neuro-Care-Inc"/>
        <meta>
          <profile value="http://hl7.org/fhir/us/core/StructureDefinition/us-core-organization"/>
        </meta>
        <text>
          <status value="generated"/><div xmlns="http://www.w3.org/1999/xhtml"><a name="Organization_org-Neuro-Care-Inc"> </a><p><b>Generated Narrative: Organization</b><a name="org-Neuro-Care-Inc"> </a><a name="hcorg-Neuro-Care-Inc"> </a></p><div style="display: inline-block; background-color: #d9e0e7; padding: 6px; margin: 4px; border: 1px solid #8da1b4; border-radius: 5px; line-height: 60%"><p style="margin-bottom: 0px">ResourceOrganization &quot;org-Neuro-Care-Inc&quot; </p><p style="margin-bottom: 0px">Profile: <a href="http://hl7.org/fhir/us/core/STU6.1/StructureDefinition-us-core-organization.html">US Core Organization Profile</a></p></div><p><b>active</b>: true</p><p><b>name</b>: Neuro Care Inc.</p><p><b>telecom</b>: ph: (210) 555 5555</p><p><b>address</b>: 177 Branching Tree Blvd, Grand Rapids, MI 49509</p></div>
        </text>
        <active value="true"/>
        <name value="Neuro Care Inc."/>
        <telecom>
          <system value="phone"/>
          <value value="(210) 555 5555"/>
        </telecom>
        <address>
          <text value="177 Branching Tree Blvd, Grand Rapids, MI 49509"/>
          <line value="177 Branching Tree Blvd"/>
          <city value="Grand Rapids"/>
          <state value="MI"/>
          <postalCode value="49509"/>
          <country value="US"/>
        </address>
      </Organization>
    </resource>
  </entry>
  <entry>
    <fullUrl value="http://www.example.org/fhir/Organization/org-PC-Primary-Care-Michigan"/>
    <resource>
      <Organization>
        <id value="org-PC-Primary-Care-Michigan"/>
        <meta>
          <profile value="http://hl7.org/fhir/us/core/StructureDefinition/us-core-organization"/>
        </meta>
        <text>
          <status value="generated"/><div xmlns="http://www.w3.org/1999/xhtml"><a name="Organization_org-PC-Primary-Care-Michigan"> </a><p><b>Generated Narrative: Organization</b><a name="org-PC-Primary-Care-Michigan"> </a><a name="hcorg-PC-Primary-Care-Michigan"> </a></p><div style="display: inline-block; background-color: #d9e0e7; padding: 6px; margin: 4px; border: 1px solid #8da1b4; border-radius: 5px; line-height: 60%"><p style="margin-bottom: 0px">ResourceOrganization &quot;org-PC-Primary-Care-Michigan&quot; </p><p style="margin-bottom: 0px">Profile: <a href="http://hl7.org/fhir/us/core/STU6.1/StructureDefinition-us-core-organization.html">US Core Organization Profile</a></p></div><p><b>active</b>: true</p><p><b>name</b>: Michigan Primary Health Care Associates</p><p><b>telecom</b>: ph: (616) 555-1212</p><p><b>address</b>: 123 Spruce Dr. Grand Rapids, MI 49503</p></div>
        </text>
        <active value="true"/>
        <name value="Michigan Primary Health Care Associates"/>
        <telecom>
          <system value="phone"/>
          <value value="(616) 555-1212"/>
        </telecom>
        <address>
          <text value="123 Spruce Dr. Grand Rapids, MI 49503"/>
          <line value="123 Spruce Dr"/>
          <city value="Grand Rapids"/>
          <state value="MI"/>
          <postalCode value="49503"/>
          <country value="US"/>
        </address>
      </Organization>
    </resource>
  </entry>
  <entry>
    <fullUrl value="http://www.example.org/fhir/Organization/org-Pharm-Everyday-Community-Pharm"/>
    <resource>
      <Organization>
        <id value="org-Pharm-Everyday-Community-Pharm"/>
        <meta>
          <profile value="http://hl7.org/fhir/us/core/StructureDefinition/us-core-organization"/>
        </meta>
        <text>
          <status value="generated"/><div xmlns="http://www.w3.org/1999/xhtml"><a name="Organization_org-Pharm-Everyday-Community-Pharm"> </a><p><b>Generated Narrative: Organization</b><a name="org-Pharm-Everyday-Community-Pharm"> </a><a name="hcorg-Pharm-Everyday-Community-Pharm"> </a></p><div style="display: inline-block; background-color: #d9e0e7; padding: 6px; margin: 4px; border: 1px solid #8da1b4; border-radius: 5px; line-height: 60%"><p style="margin-bottom: 0px">ResourceOrganization &quot;org-Pharm-Everyday-Community-Pharm&quot; </p><p style="margin-bottom: 0px">Profile: <a href="http://hl7.org/fhir/us/core/STU6.1/StructureDefinition-us-core-organization.html">US Core Organization Profile</a></p></div><p><b>active</b>: true</p><p><b>name</b>: Everyday Community Pharmacy</p><p><b>telecom</b>: ph: (610) 555 1893</p><p><b>address</b>: 125 Yew St, Grand Rapids, MI 49503</p></div>
        </text>
        <active value="true"/>
        <name value="Everyday Community Pharmacy"/>
        <telecom>
          <system value="phone"/>
          <value value="(610) 555 1893"/>
        </telecom>
        <address>
          <text value="125 Yew St, Grand Rapids, MI 49503"/>
          <line value="125 Yew St"/>
          <city value="Grand Rapids"/>
          <state value="MI"/>
          <postalCode value="49503"/>
          <country value="US"/>
        </address>
      </Organization>
    </resource>
  </entry>
  <entry>
    <fullUrl value="http://www.example.org/fhir/Organization/org-Pharm-NED-Contract-Pharm"/>
    <resource>
      <Organization>
        <id value="org-Pharm-NED-Contract-Pharm"/>
        <meta>
          <profile value="http://hl7.org/fhir/us/core/StructureDefinition/us-core-organization"/>
        </meta>
        <text>
          <status value="generated"/><div xmlns="http://www.w3.org/1999/xhtml"><a name="Organization_org-Pharm-NED-Contract-Pharm"> </a><p><b>Generated Narrative: Organization</b><a name="org-Pharm-NED-Contract-Pharm"> </a><a name="hcorg-Pharm-NED-Contract-Pharm"> </a></p><div style="display: inline-block; background-color: #d9e0e7; padding: 6px; margin: 4px; border: 1px solid #8da1b4; border-radius: 5px; line-height: 60%"><p style="margin-bottom: 0px">ResourceOrganization &quot;org-Pharm-NED-Contract-Pharm&quot; </p><p style="margin-bottom: 0px">Profile: <a href="http://hl7.org/fhir/us/core/STU6.1/StructureDefinition-us-core-organization.html">US Core Organization Profile</a></p></div><p><b>active</b>: true</p><p><b>name</b>: Not Every Day Contract Pharmacy</p><p><b>telecom</b>: ph: (410) 588 4939</p><p><b>address</b>: 155 Light Commercial Ave, Grand Rapids, MI 49509</p></div>
        </text>
        <active value="true"/>
        <name value="Not Every Day Contract Pharmacy"/>
        <telecom>
          <system value="phone"/>
          <value value="(410) 588 4939"/>
        </telecom>
        <address>
          <text value="155 Light Commercial Ave, Grand Rapids, MI 49509"/>
          <line value="155 Light Commercial Ave"/>
          <city value="Grand Rapids"/>
          <state value="MI"/>
          <postalCode value="49509"/>
          <country value="US"/>
        </address>
      </Organization>
    </resource>
  </entry>
  <entry>
    <fullUrl value="http://www.example.org/fhir/Organization/org-SNF-Happy-Nursing-Facility"/>
    <resource>
      <Organization>
        <id value="org-SNF-Happy-Nursing-Facility"/>
        <meta>
          <profile value="http://hl7.org/fhir/us/core/StructureDefinition/us-core-organization"/>
        </meta>
        <text>
          <status value="generated"/><div xmlns="http://www.w3.org/1999/xhtml"><a name="Organization_org-SNF-Happy-Nursing-Facility"> </a><p><b>Generated Narrative: Organization</b><a name="org-SNF-Happy-Nursing-Facility"> </a><a name="hcorg-SNF-Happy-Nursing-Facility"> </a></p><div style="display: inline-block; background-color: #d9e0e7; padding: 6px; margin: 4px; border: 1px solid #8da1b4; border-radius: 5px; line-height: 60%"><p style="margin-bottom: 0px">ResourceOrganization &quot;org-SNF-Happy-Nursing-Facility&quot; </p><p style="margin-bottom: 0px">Profile: <a href="http://hl7.org/fhir/us/core/STU6.1/StructureDefinition-us-core-organization.html">US Core Organization Profile</a></p></div><p><b>active</b>: true</p><p><b>name</b>: Happy Nursing Facility</p><p><b>telecom</b>: ph: (210) 555 1871</p><p><b>address</b>: 8100 Pinebrook Dr, Grand Rapids, MI 49504</p></div>
        </text>
        <active value="true"/>
        <name value="Happy Nursing Facility"/>
        <telecom>
          <system value="phone"/>
          <value value="(210) 555 1871"/>
        </telecom>
        <address>
          <text value="8100 Pinebrook Dr, Grand Rapids, MI 49504"/>
          <line value="8100 Pinebrook Dr"/>
          <city value="Grand Rapids"/>
          <state value="MI"/>
          <postalCode value="49504"/>
          <country value="US"/>
        </address>
      </Organization>
    </resource>
  </entry>
  <entry>
    <fullUrl value="http://www.example.org/fhir/Practitioner/Example-AnitaChu"/>
    <resource>
      <Practitioner>
        <id value="Example-AnitaChu"/>
        <meta>
          <profile value="http://hl7.org/fhir/us/core/StructureDefinition/us-core-practitioner"/>
        </meta>
        <text>
          <status value="generated"/><div xmlns="http://www.w3.org/1999/xhtml"><a name="Practitioner_Example-AnitaChu"> </a><p><b>Generated Narrative: Practitioner</b><a name="Example-AnitaChu"> </a><a name="hcExample-AnitaChu"> </a></p><div style="display: inline-block; background-color: #d9e0e7; padding: 6px; margin: 4px; border: 1px solid #8da1b4; border-radius: 5px; line-height: 60%"><p style="margin-bottom: 0px">ResourcePractitioner &quot;Example-AnitaChu&quot; </p><p style="margin-bottom: 0px">Profile: <a href="http://hl7.org/fhir/us/core/STU6.1/StructureDefinition-us-core-practitioner.html">US Core Practitioner Profile</a></p></div><p><b>identifier</b>: <a href="http://terminology.hl7.org/5.0.0/NamingSystem-npi.html" title="National Provider Identifier">NPI</a>/8134258523</p><p><b>active</b>: true</p><p><b>name</b>: Anita Chu</p><p><b>telecom</b>: ph: (616) 555-1212</p><p><b>address</b>: 123 Spruce Dr. Grand Rapids, MI 49503</p><p><b>gender</b>: female</p></div>
        </text>
        <identifier>
          <system value="http://hl7.org/fhir/sid/us-npi"/>
          <value value="8134258523"/>
        </identifier>
        <active value="true"/>
        <name>
          <text value="Anita Chu"/>
          <family value="Chu"/>
          <given value="Anita"/>
        </name>
        <telecom>
          <system value="phone"/>
          <value value="(616) 555-1212"/>
        </telecom>
        <address>
          <text value="123 Spruce Dr. Grand Rapids, MI 49503"/>
          <line value="123 Spruce Dr"/>
          <city value="Grand Rapids"/>
          <state value="MI"/>
          <postalCode value="49503"/>
          <country value="US"/>
        </address>
        <gender value="female"/>
      </Practitioner>
    </resource>
  </entry>
  <entry>
    <fullUrl value="http://www.example.org/fhir/Practitioner/Example-GeraldPark"/>
    <resource>
      <Practitioner>
        <id value="Example-GeraldPark"/>
        <meta>
          <profile value="http://hl7.org/fhir/us/core/StructureDefinition/us-core-practitioner"/>
        </meta>
        <text>
          <status value="generated"/><div xmlns="http://www.w3.org/1999/xhtml"><a name="Practitioner_Example-GeraldPark"> </a><p><b>Generated Narrative: Practitioner</b><a name="Example-GeraldPark"> </a><a name="hcExample-GeraldPark"> </a></p><div style="display: inline-block; background-color: #d9e0e7; padding: 6px; margin: 4px; border: 1px solid #8da1b4; border-radius: 5px; line-height: 60%"><p style="margin-bottom: 0px">ResourcePractitioner &quot;Example-GeraldPark&quot; </p><p style="margin-bottom: 0px">Profile: <a href="http://hl7.org/fhir/us/core/STU6.1/StructureDefinition-us-core-practitioner.html">US Core Practitioner Profile</a></p></div><p><b>identifier</b>: <a href="http://terminology.hl7.org/5.0.0/NamingSystem-npi.html" title="National Provider Identifier">NPI</a>/8554084011</p><p><b>active</b>: true</p><p><b>name</b>: Gerald Park</p><p><b>telecom</b>: ph: (555) 566 3494</p><p><b>address</b>: 8100 Pinebrook Dr, Grand Rapids, MI 49504</p><p><b>gender</b>: male</p></div>
        </text>
        <identifier>
          <system value="http://hl7.org/fhir/sid/us-npi"/>
          <value value="8554084011"/>
        </identifier>
        <active value="true"/>
        <name>
          <text value="Gerald Park"/>
          <family value="Park"/>
          <given value="Gerald"/>
        </name>
        <telecom>
          <system value="phone"/>
          <value value="(555) 566 3494"/>
        </telecom>
        <address>
          <text value="8100 Pinebrook Dr, Grand Rapids, MI 49504"/>
          <line value="8100 Pinebrook Dr"/>
          <city value="Grand Rapids"/>
          <state value="MI"/>
          <postalCode value="49504"/>
          <country value="US"/>
        </address>
        <gender value="male"/>
      </Practitioner>
    </resource>
  </entry>
  <entry>
    <fullUrl value="http://www.example.org/fhir/Practitioner/Example-JenCadbury"/>
    <resource>
      <Practitioner>
        <id value="Example-JenCadbury"/>
        <meta>
          <profile value="http://hl7.org/fhir/us/core/StructureDefinition/us-core-practitioner"/>
        </meta>
        <text>
          <status value="generated"/><div xmlns="http://www.w3.org/1999/xhtml"><a name="Practitioner_Example-JenCadbury"> </a><p><b>Generated Narrative: Practitioner</b><a name="Example-JenCadbury"> </a><a name="hcExample-JenCadbury"> </a></p><div style="display: inline-block; background-color: #d9e0e7; padding: 6px; margin: 4px; border: 1px solid #8da1b4; border-radius: 5px; line-height: 60%"><p style="margin-bottom: 0px">ResourcePractitioner &quot;Example-JenCadbury&quot; </p><p style="margin-bottom: 0px">Profile: <a href="http://hl7.org/fhir/us/core/STU6.1/StructureDefinition-us-core-practitioner.html">US Core Practitioner Profile</a></p></div><p><b>identifier</b>: <a href="http://terminology.hl7.org/5.0.0/NamingSystem-npi.html" title="National Provider Identifier">NPI</a>/9635749481</p><p><b>active</b>: true</p><p><b>name</b>: Jen Cadbury</p><p><b>telecom</b>: ph: (210) 555 1871</p><p><b>address</b>: 8100 Pinebrook Dr, Grand Rapids, MI 49504</p><p><b>gender</b>: female</p></div>
        </text>
        <identifier>
          <system value="http://hl7.org/fhir/sid/us-npi"/>
          <value value="9635749481"/>
        </identifier>
        <active value="true"/>
        <name>
          <text value="Jen Cadbury"/>
          <family value="Cadbury"/>
          <given value="Jen"/>
        </name>
        <telecom>
          <system value="phone"/>
          <value value="(210) 555 1871"/>
        </telecom>
        <address>
          <text value="8100 Pinebrook Dr, Grand Rapids, MI 49504"/>
          <line value="8100 Pinebrook Dr"/>
          <city value="Grand Rapids"/>
          <state value="MI"/>
          <postalCode value="49504"/>
          <country value="US"/>
        </address>
        <gender value="female"/>
      </Practitioner>
    </resource>
  </entry>
  <entry>
    <fullUrl value="http://www.example.org/fhir/Practitioner/Example-NuraMekel"/>
    <resource>
      <Practitioner>
        <id value="Example-NuraMekel"/>
        <meta>
          <profile value="http://hl7.org/fhir/us/core/StructureDefinition/us-core-practitioner"/>
        </meta>
        <text>
          <status value="generated"/><div xmlns="http://www.w3.org/1999/xhtml"><a name="Practitioner_Example-NuraMekel"> </a><p><b>Generated Narrative: Practitioner</b><a name="Example-NuraMekel"> </a><a name="hcExample-NuraMekel"> </a></p><div style="display: inline-block; background-color: #d9e0e7; padding: 6px; margin: 4px; border: 1px solid #8da1b4; border-radius: 5px; line-height: 60%"><p style="margin-bottom: 0px">ResourcePractitioner &quot;Example-NuraMekel&quot; </p><p style="margin-bottom: 0px">Profile: <a href="http://hl7.org/fhir/us/core/STU6.1/StructureDefinition-us-core-practitioner.html">US Core Practitioner Profile</a></p></div><p><b>identifier</b>: <a href="http://terminology.hl7.org/5.0.0/NamingSystem-npi.html" title="National Provider Identifier">NPI</a>/8224780964</p><p><b>active</b>: true</p><p><b>name</b>: Nura Mekel</p><p><b>telecom</b>: ph: (210) 555 5555</p><p><b>address</b>: 177 Branching Tree Blvd, Grand Rapids, MI 49509</p><p><b>gender</b>: female</p></div>
        </text>
        <identifier>
          <system value="http://hl7.org/fhir/sid/us-npi"/>
          <value value="8224780964"/>
        </identifier>
        <active value="true"/>
        <name>
          <text value="Nura Mekel"/>
          <family value="Mekel"/>
          <given value="Nura"/>
        </name>
        <telecom>
          <system value="phone"/>
          <value value="(210) 555 5555"/>
        </telecom>
        <address>
          <text value="177 Branching Tree Blvd, Grand Rapids, MI 49509"/>
          <line value="177 Branching Tree Blvd"/>
          <city value="Grand Rapids"/>
          <state value="MI"/>
          <postalCode value="49509"/>
          <country value="US"/>
        </address>
        <gender value="female"/>
      </Practitioner>
    </resource>
  </entry>
  <entry>
    <fullUrl value="http://www.example.org/fhir/Practitioner/Example-Phil-Chekhov"/>
    <resource>
      <Practitioner>
        <id value="Example-Phil-Chekhov"/>
        <meta>
          <profile value="http://hl7.org/fhir/us/core/StructureDefinition/us-core-practitioner"/>
        </meta>
        <text>
          <status value="generated"/><div xmlns="http://www.w3.org/1999/xhtml"><a name="Practitioner_Example-Phil-Chekhov"> </a><p><b>Generated Narrative: Practitioner</b><a name="Example-Phil-Chekhov"> </a><a name="hcExample-Phil-Chekhov"> </a></p><div style="display: inline-block; background-color: #d9e0e7; padding: 6px; margin: 4px; border: 1px solid #8da1b4; border-radius: 5px; line-height: 60%"><p style="margin-bottom: 0px">ResourcePractitioner &quot;Example-Phil-Chekhov&quot; </p><p style="margin-bottom: 0px">Profile: <a href="http://hl7.org/fhir/us/core/STU6.1/StructureDefinition-us-core-practitioner.html">US Core Practitioner Profile</a></p></div><p><b>identifier</b>: <a href="http://terminology.hl7.org/5.0.0/NamingSystem-npi.html" title="National Provider Identifier">NPI</a>/6096712826</p><p><b>active</b>: true</p><p><b>name</b>: Phil Chekhov</p><p><b>telecom</b>: ph: (610) 555 1893</p><p><b>address</b>: 125 Yew St, Grand Rapids, MI 49503</p><p><b>gender</b>: male</p></div>
        </text>
        <identifier>
          <system value="http://hl7.org/fhir/sid/us-npi"/>
          <value value="6096712826"/>
        </identifier>
        <active value="true"/>
        <name>
          <text value="Phil Chekhov"/>
          <family value="Chekhov"/>
          <given value="Phil"/>
        </name>
        <telecom>
          <system value="phone"/>
          <value value="(610) 555 1893"/>
        </telecom>
        <address>
          <text value="125 Yew St, Grand Rapids, MI 49503"/>
          <line value="125 Yew St"/>
          <city value="Grand Rapids"/>
          <state value="MI"/>
          <postalCode value="49503"/>
          <country value="US"/>
        </address>
        <gender value="male"/>
      </Practitioner>
    </resource>
  </entry>
  <entry>
    <fullUrl value="http://www.example.org/fhir/Practitioner/Example-Tracy-Count"/>
    <resource>
      <Practitioner>
        <id value="Example-Tracy-Count"/>
        <meta>
          <profile value="http://hl7.org/fhir/us/core/StructureDefinition/us-core-practitioner"/>
        </meta>
        <text>
          <status value="generated"/><div xmlns="http://www.w3.org/1999/xhtml"><a name="Practitioner_Example-Tracy-Count"> </a><p><b>Generated Narrative: Practitioner</b><a name="Example-Tracy-Count"> </a><a name="hcExample-Tracy-Count"> </a></p><div style="display: inline-block; background-color: #d9e0e7; padding: 6px; margin: 4px; border: 1px solid #8da1b4; border-radius: 5px; line-height: 60%"><p style="margin-bottom: 0px">ResourcePractitioner &quot;Example-Tracy-Count&quot; </p><p style="margin-bottom: 0px">Profile: <a href="http://hl7.org/fhir/us/core/STU6.1/StructureDefinition-us-core-practitioner.html">US Core Practitioner Profile</a></p></div><p><b>identifier</b>: <a href="http://terminology.hl7.org/5.0.0/NamingSystem-npi.html" title="National Provider Identifier">NPI</a>/2473724138</p><p><b>active</b>: true</p><p><b>name</b>: Tracy Count</p><p><b>telecom</b>: ph: (410) 588 4939</p><p><b>address</b>: 155 Light Commercial Ave, Grand Rapids, MI 49509</p><p><b>gender</b>: female</p></div>
        </text>
        <identifier>
          <system value="http://hl7.org/fhir/sid/us-npi"/>
          <value value="2473724138"/>
        </identifier>
        <active value="true"/>
        <name>
          <text value="Tracy Count"/>
          <family value="Count"/>
          <given value="Tracy"/>
        </name>
        <telecom>
          <system value="phone"/>
          <value value="(410) 588 4939"/>
        </telecom>
        <address>
          <text value="155 Light Commercial Ave, Grand Rapids, MI 49509"/>
          <line value="155 Light Commercial Ave"/>
          <city value="Grand Rapids"/>
          <state value="MI"/>
          <postalCode value="49509"/>
          <country value="US"/>
        </address>
        <gender value="female"/>
      </Practitioner>
    </resource>
  </entry>
  <entry>
    <fullUrl value="http://www.example.org/fhir/PractitionerRole/Role-IMMD-AnitaChu"/>
    <resource>
      <PractitionerRole>
        <id value="Role-IMMD-AnitaChu"/>
        <meta>
          <profile value="http://hl7.org/fhir/us/core/StructureDefinition/us-core-practitionerrole"/>
        </meta>
        <text>
          <status value="generated"/><div xmlns="http://www.w3.org/1999/xhtml"><a name="PractitionerRole_Role-IMMD-AnitaChu"> </a><p><b>Generated Narrative: PractitionerRole</b><a name="Role-IMMD-AnitaChu"> </a><a name="hcRole-IMMD-AnitaChu"> </a></p><div style="display: inline-block; background-color: #d9e0e7; padding: 6px; margin: 4px; border: 1px solid #8da1b4; border-radius: 5px; line-height: 60%"><p style="margin-bottom: 0px">ResourcePractitionerRole &quot;Role-IMMD-AnitaChu&quot; </p><p style="margin-bottom: 0px">Profile: <a href="http://hl7.org/fhir/us/core/STU6.1/StructureDefinition-us-core-practitionerrole.html">US Core PractitionerRole Profile</a></p></div><p><b>active</b>: true</p><p><b>practitioner</b>: See on this page: Practitioner/Example-AnitaChu: Dr. Anita Chu</p><p><b>organization</b>: See on this page: Organization/org-PC-Primary-Care-Michigan: Michigan Primary Health Care Associates</p><p><b>code</b>: Internal Medicine Physician <span style="background: LightGoldenRodYellow; margin: 4px; border: 1px solid khaki"> (#207R00000X)</span></p><p><b>location</b>: See on this page: Location/org-Loc-PC-Primary-Care-Michigan</p></div>
        </text>
        <active value="true"/>
        <practitioner>
          <reference value="Practitioner/Example-AnitaChu"/>
          <display value="Dr. Anita Chu"/>
        </practitioner>
        <organization>
          <reference value="Organization/org-PC-Primary-Care-Michigan"/>
          <display value="Michigan Primary Health Care Associates"/>
        </organization>
        <code>
          <coding>
            <system value="https://taxonomy.nucc.org/"/>
            <code value="207R00000X"/>
            <display value="Internal Medicine Physician"/>
          </coding>
        </code>
        <location>
          <reference value="Location/org-Loc-PC-Primary-Care-Michigan"/>
        </location>
      </PractitionerRole>
    </resource>
  </entry>
  <entry>
    <fullUrl value="http://www.example.org/fhir/PractitionerRole/Role-Neuro-NuraMekel"/>
    <resource>
      <PractitionerRole>
        <id value="Role-Neuro-NuraMekel"/>
        <meta>
          <profile value="http://hl7.org/fhir/us/core/StructureDefinition/us-core-practitionerrole"/>
        </meta>
        <text>
          <status value="generated"/><div xmlns="http://www.w3.org/1999/xhtml"><a name="PractitionerRole_Role-Neuro-NuraMekel"> </a><p><b>Generated Narrative: PractitionerRole</b><a name="Role-Neuro-NuraMekel"> </a><a name="hcRole-Neuro-NuraMekel"> </a></p><div style="display: inline-block; background-color: #d9e0e7; padding: 6px; margin: 4px; border: 1px solid #8da1b4; border-radius: 5px; line-height: 60%"><p style="margin-bottom: 0px">ResourcePractitionerRole &quot;Role-Neuro-NuraMekel&quot; </p><p style="margin-bottom: 0px">Profile: <a href="http://hl7.org/fhir/us/core/STU6.1/StructureDefinition-us-core-practitionerrole.html">US Core PractitionerRole Profile</a></p></div><p><b>active</b>: true</p><p><b>practitioner</b>: See on this page: Practitioner/Example-NuraMekel: Nura Mekel</p><p><b>organization</b>: See on this page: Organization/org-Neuro-Care-Inc: Neuro Care Inc.</p><p><b>code</b>: Neurology Physician <span style="background: LightGoldenRodYellow; margin: 4px; border: 1px solid khaki"> (#2084N0400X)</span></p><p><b>location</b>: See on this page: Location/org-Loc-Neuro-Care-Inc</p></div>
        </text>
        <active value="true"/>
        <practitioner>
          <reference value="Practitioner/Example-NuraMekel"/>
          <display value="Nura Mekel"/>
        </practitioner>
        <organization>
          <reference value="Organization/org-Neuro-Care-Inc"/>
          <display value="Neuro Care Inc."/>
        </organization>
        <code>
          <coding>
            <system value="https://taxonomy.nucc.org/"/>
            <code value="2084N0400X"/>
            <display value="Neurology Physician"/>
          </coding>
        </code>
        <location>
          <reference value="Location/org-Loc-Neuro-Care-Inc"/>
        </location>
      </PractitionerRole>
    </resource>
  </entry>
  <entry>
    <fullUrl value="http://www.example.org/fhir/PractitionerRole/Role-OT-JenCadbury"/>
    <resource>
      <PractitionerRole>
        <id value="Role-OT-JenCadbury"/>
        <meta>
          <profile value="http://hl7.org/fhir/us/core/StructureDefinition/us-core-practitionerrole"/>
        </meta>
        <text>
          <status value="generated"/><div xmlns="http://www.w3.org/1999/xhtml"><a name="PractitionerRole_Role-OT-JenCadbury"> </a><p><b>Generated Narrative: PractitionerRole</b><a name="Role-OT-JenCadbury"> </a><a name="hcRole-OT-JenCadbury"> </a></p><div style="display: inline-block; background-color: #d9e0e7; padding: 6px; margin: 4px; border: 1px solid #8da1b4; border-radius: 5px; line-height: 60%"><p style="margin-bottom: 0px">ResourcePractitionerRole &quot;Role-OT-JenCadbury&quot; </p><p style="margin-bottom: 0px">Profile: <a href="http://hl7.org/fhir/us/core/STU6.1/StructureDefinition-us-core-practitionerrole.html">US Core PractitionerRole Profile</a></p></div><p><b>active</b>: true</p><p><b>practitioner</b>: See on this page: Practitioner/Example-JenCadbury: Jen Cadbury</p><p><b>organization</b>: See on this page: Organization/org-SNF-Happy-Nursing-Facility: Happy Nursing Facility</p><p><b>code</b>: Occupational Therapist <span style="background: LightGoldenRodYellow; margin: 4px; border: 1px solid khaki"> (#225X00000X)</span></p><p><b>location</b>: See on this page: Location/org-Loc-SNF-Happy-Nursing-Facility</p></div>
        </text>
        <active value="true"/>
        <practitioner>
          <reference value="Practitioner/Example-JenCadbury"/>
          <display value="Jen Cadbury"/>
        </practitioner>
        <organization>
          <reference value="Organization/org-SNF-Happy-Nursing-Facility"/>
          <display value="Happy Nursing Facility"/>
        </organization>
        <code>
          <coding>
            <system value="https://taxonomy.nucc.org/"/>
            <code value="225X00000X"/>
            <display value="Occupational Therapist"/>
          </coding>
        </code>
        <location>
          <reference value="Location/org-Loc-SNF-Happy-Nursing-Facility"/>
        </location>
      </PractitionerRole>
    </resource>
  </entry>
  <entry>
    <fullUrl value="http://www.example.org/fhir/PractitionerRole/Role-Pharm-PhilChekhov"/>
    <resource>
      <PractitionerRole>
        <id value="Role-Pharm-PhilChekhov"/>
        <meta>
          <profile value="http://hl7.org/fhir/us/core/StructureDefinition/us-core-practitionerrole"/>
        </meta>
        <text>
          <status value="generated"/><div xmlns="http://www.w3.org/1999/xhtml"><a name="PractitionerRole_Role-Pharm-PhilChekhov"> </a><p><b>Generated Narrative: PractitionerRole</b><a name="Role-Pharm-PhilChekhov"> </a><a name="hcRole-Pharm-PhilChekhov"> </a></p><div style="display: inline-block; background-color: #d9e0e7; padding: 6px; margin: 4px; border: 1px solid #8da1b4; border-radius: 5px; line-height: 60%"><p style="margin-bottom: 0px">ResourcePractitionerRole &quot;Role-Pharm-PhilChekhov&quot; </p><p style="margin-bottom: 0px">Profile: <a href="http://hl7.org/fhir/us/core/STU6.1/StructureDefinition-us-core-practitionerrole.html">US Core PractitionerRole Profile</a></p></div><p><b>active</b>: true</p><p><b>practitioner</b>: See on this page: Practitioner/Example-Phil-Chekhov: Phil Chekhov</p><p><b>organization</b>: See on this page: Organization/org-Pharm-Everyday-Community-Pharm: Everyday Community Pharmacy</p><p><b>code</b>: Pharmacist <span style="background: LightGoldenRodYellow; margin: 4px; border: 1px solid khaki"> (#183500000X)</span></p><p><b>location</b>: See on this page: Location/org-Loc-Everyday-Community-Pharm</p></div>
        </text>
        <active value="true"/>
        <practitioner>
          <reference value="Practitioner/Example-Phil-Chekhov"/>
          <display value="Phil Chekhov"/>
        </practitioner>
        <organization>
          <reference value="Organization/org-Pharm-Everyday-Community-Pharm"/>
          <display value="Everyday Community Pharmacy"/>
        </organization>
        <code>
          <coding>
            <system value="https://taxonomy.nucc.org/"/>
            <code value="183500000X"/>
            <display value="Pharmacist"/>
          </coding>
        </code>
        <location>
          <reference value="Location/org-Loc-Everyday-Community-Pharm"/>
        </location>
      </PractitionerRole>
    </resource>
  </entry>
  <entry>
    <fullUrl value="http://www.example.org/fhir/PractitionerRole/Role-Pharm-TracyCount"/>
    <resource>
      <PractitionerRole>
        <id value="Role-Pharm-TracyCount"/>
        <meta>
          <profile value="http://hl7.org/fhir/us/core/StructureDefinition/us-core-practitionerrole"/>
        </meta>
        <text>
          <status value="generated"/><div xmlns="http://www.w3.org/1999/xhtml"><a name="PractitionerRole_Role-Pharm-TracyCount"> </a><p><b>Generated Narrative: PractitionerRole</b><a name="Role-Pharm-TracyCount"> </a><a name="hcRole-Pharm-TracyCount"> </a></p><div style="display: inline-block; background-color: #d9e0e7; padding: 6px; margin: 4px; border: 1px solid #8da1b4; border-radius: 5px; line-height: 60%"><p style="margin-bottom: 0px">ResourcePractitionerRole &quot;Role-Pharm-TracyCount&quot; </p><p style="margin-bottom: 0px">Profile: <a href="http://hl7.org/fhir/us/core/STU6.1/StructureDefinition-us-core-practitionerrole.html">US Core PractitionerRole Profile</a></p></div><p><b>active</b>: true</p><p><b>practitioner</b>: See on this page: Practitioner/Example-Tracy-Count: Tracy Count</p><p><b>organization</b>: See on this page: Organization/org-Pharm-NED-Contract-Pharm: Not Every Day Contract Pharmacy</p><p><b>code</b>: Pharmacist <span style="background: LightGoldenRodYellow; margin: 4px; border: 1px solid khaki"> (#183500000X)</span></p><p><b>location</b>: See on this page: Location/org-Loc-NED-Contract-Pharm</p></div>
        </text>
        <active value="true"/>
        <practitioner>
          <reference value="Practitioner/Example-Tracy-Count"/>
          <display value="Tracy Count"/>
        </practitioner>
        <organization>
          <reference value="Organization/org-Pharm-NED-Contract-Pharm"/>
          <display value="Not Every Day Contract Pharmacy"/>
        </organization>
        <code>
          <coding>
            <system value="https://taxonomy.nucc.org/"/>
            <code value="183500000X"/>
            <display value="Pharmacist"/>
          </coding>
        </code>
        <location>
          <reference value="Location/org-Loc-NED-Contract-Pharm"/>
        </location>
      </PractitionerRole>
    </resource>
  </entry>
  <entry>
    <fullUrl value="http://www.example.org/fhir/PractitionerRole/Role-SNFDoc-GeraldPark"/>
    <resource>
      <PractitionerRole>
        <id value="Role-SNFDoc-GeraldPark"/>
        <meta>
          <profile value="http://hl7.org/fhir/us/core/StructureDefinition/us-core-practitionerrole"/>
        </meta>
        <text>
          <status value="generated"/><div xmlns="http://www.w3.org/1999/xhtml"><a name="PractitionerRole_Role-SNFDoc-GeraldPark"> </a><p><b>Generated Narrative: PractitionerRole</b><a name="Role-SNFDoc-GeraldPark"> </a><a name="hcRole-SNFDoc-GeraldPark"> </a></p><div style="display: inline-block; background-color: #d9e0e7; padding: 6px; margin: 4px; border: 1px solid #8da1b4; border-radius: 5px; line-height: 60%"><p style="margin-bottom: 0px">ResourcePractitionerRole &quot;Role-SNFDoc-GeraldPark&quot; </p><p style="margin-bottom: 0px">Profile: <a href="http://hl7.org/fhir/us/core/STU6.1/StructureDefinition-us-core-practitionerrole.html">US Core PractitionerRole Profile</a></p></div><p><b>active</b>: true</p><p><b>practitioner</b>: See on this page: Practitioner/Example-GeraldPark: Gerald Park</p><p><b>organization</b>: See on this page: Organization/org-SNF-Happy-Nursing-Facility: Happy Nursing Facility</p><p><b>code</b>: Geriatric Medicine Physician <span style="background: LightGoldenRodYellow; margin: 4px; border: 1px solid khaki"> (#207QG0300X)</span></p><p><b>location</b>: See on this page: Location/org-Loc-SNF-Happy-Nursing-Facility</p></div>
        </text>
        <active value="true"/>
        <practitioner>
          <reference value="Practitioner/Example-GeraldPark"/>
          <display value="Gerald Park"/>
        </practitioner>
        <organization>
          <reference value="Organization/org-SNF-Happy-Nursing-Facility"/>
          <display value="Happy Nursing Facility"/>
        </organization>
        <code>
          <coding>
            <system value="https://taxonomy.nucc.org/"/>
            <code value="207QG0300X"/>
            <display value="Geriatric Medicine Physician"/>
          </coding>
        </code>
        <location>
          <reference value="Location/org-Loc-SNF-Happy-Nursing-Facility"/>
        </location>
      </PractitionerRole>
    </resource>
  </entry>
</Bundle>